,imu,server_time,arduino_time,ax,ay,az,gx,gy,gz,mx,my,mz
0,1,2022-09-30T20:43:02.667988,3347069,-1634,420,-555,-1489,-384,-72,367,391,-67
1,1,2022-09-30T20:43:02.882134,3347283,-1646,396,-565,-1326,-174,-116,371,391,-67
2,1,2022-09-30T20:43:02.891661,3347294,-1643,402,-570,-1336,-185,-170,371,391,-67
3,1,2022-09-30T20:43:02.898071,3347300,-1643,402,-570,-1336,-185,-170,371,391,-67
4,1,2022-09-30T20:43:02.905439,3347307,-1643,402,-570,-1336,-185,-170,371,391,-67
5,1,2022-09-30T20:43:02.911611,3347313,-1643,406,-576,-1352,-215,-183,371,391,-67
6,1,2022-09-30T20:43:02.917862,3347319,-1643,406,-576,-1352,-215,-183,371,391,-67
7,1,2022-09-30T20:43:02.925561,3347328,-1643,406,-576,-1352,-215,-183,371,391,-67
8,1,2022-09-30T20:43:02.931405,3347334,-1644,413,-579,-1385,-258,-157,371,391,-67
9,1,2022-09-30T20:43:02.938380,3347341,-1644,413,-579,-1385,-258,-157,371,391,-67
10,1,2022-09-30T20:43:02.946381,3347348,-1644,413,-579,-1385,-258,-157,371,391,-67
11,1,2022-09-30T20:43:02.952640,3347354,-1641,412,-574,-1417,-316,-118,371,391,-67
12,1,2022-09-30T20:43:02.958479,3347360,-1641,412,-574,-1417,-316,-118,371,391,-67
13,1,2022-09-30T20:43:02.964568,3347366,-1641,412,-574,-1417,-316,-118,371,391,-67
14,1,2022-09-30T20:43:02.971461,3347373,-1644,413,-566,-1471,-348,-80,371,391,-67
15,1,2022-09-30T20:43:02.977399,3347380,-1644,413,-566,-1471,-348,-80,371,391,-67
16,1,2022-09-30T20:43:02.984928,3347387,-1644,413,-566,-1471,-348,-80,371,391,-67
17,1,2022-09-30T20:43:02.991516,3347393,-1635,417,-572,-1516,-370,-94,373,381,-65
18,1,2022-09-30T20:43:02.999611,3347402,-1635,417,-572,-1516,-370,-94,373,381,-65
19,1,2022-09-30T20:43:03.006617,3347409,-1635,417,-572,-1516,-370,-94,373,381,-65
20,1,2022-09-30T20:43:03.012299,3347415,-1641,412,-574,-1567,-334,-104,373,381,-65
21,1,2022-09-30T20:43:03.021032,3347423,-1641,412,-574,-1567,-334,-104,373,381,-65
22,1,2022-09-30T20:43:03.028566,3347431,-1641,412,-574,-1567,-334,-104,373,381,-65
23,1,2022-09-30T20:43:03.034452,3347436,-1641,412,-574,-1567,-334,-104,373,381,-65
24,1,2022-09-30T20:43:03.042204,3347444,-1641,412,-574,-1567,-334,-104,373,381,-65
25,1,2022-09-30T20:43:03.048481,3347450,-1641,412,-574,-1567,-334,-104,373,381,-65
26,1,2022-09-30T20:43:03.054631,3347457,-1632,394,-572,-1530,-258,-86,373,381,-65
27,1,2022-09-30T20:43:03.062749,3347465,-1632,394,-572,-1530,-258,-86,373,381,-65
28,1,2022-09-30T20:43:03.071133,3347473,-1643,386,-576,-1454,-231,-181,373,381,-65
29,1,2022-09-30T20:43:03.076766,3347479,-1643,386,-576,-1454,-231,-181,373,381,-65
30,1,2022-09-30T20:43:03.082880,3347485,-1643,386,-576,-1454,-231,-181,373,381,-65
31,1,2022-09-30T20:43:03.089456,3347491,-1643,386,-576,-1454,-231,-181,373,381,-65
32,1,2022-09-30T20:43:03.095616,3347497,-1644,387,-580,-1388,-265,-252,373,381,-65
33,1,2022-09-30T20:43:03.104842,3347507,-1644,387,-580,-1388,-265,-252,373,381,-65
34,1,2022-09-30T20:43:03.110575,3347513,-1636,393,-573,-1350,-307,-295,367,391,-65
35,1,2022-09-30T20:43:03.116857,3347519,-1636,393,-573,-1350,-307,-295,367,391,-71
36,1,2022-09-30T20:43:03.124902,3347527,-1636,393,-573,-1350,-307,-295,367,391,-71
37,1,2022-09-30T20:43:03.131051,3347533,-1638,398,-569,-1354,-334,-294,367,391,-71
38,1,2022-09-30T20:43:03.139218,3347542,-1638,398,-569,-1354,-334,-294,367,391,-71
39,1,2022-09-30T20:43:03.145057,3347548,-1638,398,-569,-1354,-334,-294,367,391,-71
40,1,2022-09-30T20:43:03.151573,3347554,-1643,402,-567,-1386,-351,-249,367,391,-71
41,1,2022-09-30T20:43:03.157729,3347560,-1643,402,-567,-1386,-351,-249,367,391,-71
42,1,2022-09-30T20:43:03.165848,3347568,-1643,402,-567,-1386,-351,-249,367,391,-71
43,1,2022-09-30T20:43:03.172459,3347574,-1636,398,-561,-1452,-372,-158,367,391,-71
44,1,2022-09-30T20:43:03.178275,3347580,-1636,398,-561,-1452,-372,-158,367,391,-71
45,1,2022-09-30T20:43:03.185339,3347588,-1636,398,-561,-1452,-372,-158,367,391,-71
46,1,2022-09-30T20:43:03.191728,3347594,-1636,392,-562,-1528,-377,-89,367,391,-71
47,1,2022-09-30T20:43:03.197773,3347600,-1636,392,-562,-1528,-377,-89,367,391,-71
48,1,2022-09-30T20:43:03.205198,3347607,-1636,392,-562,-1528,-377,-89,367,391,-71
49,1,2022-09-30T20:43:03.211465,3347613,-1629,384,-563,-1582,-367,-36,367,391,-71
50,1,2022-09-30T20:43:03.217259,3347619,-1629,384,-563,-1582,-367,-36,367,391,-71
51,1,2022-09-30T20:43:03.225181,3347628,-1629,384,-563,-1582,-367,-36,367,391,-71
52,1,2022-09-30T20:43:03.235673,3347637,-1631,371,-573,-1581,-318,41,367,391,-71
53,1,2022-09-30T20:43:03.247193,3347649,-1631,371,-573,-1581,-318,41,367,391,-71
54,1,2022-09-30T20:43:03.254149,3347656,-1649,376,-564,-1525,-253,68,370,392,-60
55,1,2022-09-30T20:43:03.264421,3347666,-1649,376,-564,-1525,-253,68,370,392,-60
56,1,2022-09-30T20:43:03.273746,3347676,-1631,386,-566,-1472,-283,147,370,392,-60
57,1,2022-09-30T20:43:03.284465,3347687,-1631,386,-566,-1472,-283,147,370,392,-60
58,1,2022-09-30T20:43:03.291331,3347693,-1629,388,-566,-1413,-254,248,370,392,-60
59,1,2022-09-30T20:43:03.299595,3347701,-1629,388,-566,-1413,-254,248,370,392,-60
60,1,2022-09-30T20:43:03.307824,3347709,-1629,388,-566,-1413,-254,248,370,392,-60
61,1,2022-09-30T20:43:03.314774,3347717,-1634,405,-565,-1367,-180,317,370,392,-60
62,1,2022-09-30T20:43:03.324879,3347727,-1634,405,-565,-1367,-180,317,370,392,-60
63,1,2022-09-30T20:43:03.331480,3347733,-1644,409,-568,-1346,-168,326,370,392,-60
64,1,2022-09-30T20:43:03.338066,3347740,-1644,409,-568,-1346,-168,326,370,392,-60
65,1,2022-09-30T20:43:03.346911,3347749,-1644,409,-568,-1346,-168,326,370,392,-60
66,1,2022-09-30T20:43:03.352661,3347755,-1642,415,-574,-1350,-218,293,370,392,-60
67,1,2022-09-30T20:43:03.358522,3347761,-1642,415,-574,-1350,-218,293,370,392,-60
68,1,2022-09-30T20:43:03.366316,3347768,-1642,415,-574,-1350,-218,293,370,392,-60
69,1,2022-09-30T20:43:03.372789,3347775,-1639,417,-576,-1378,-246,203,363,389,-61
70,1,2022-09-30T20:43:03.397171,3347781,-1639,417,-576,-1378,-246,203,363,389,-61
71,1,2022-09-30T20:43:03.403153,3347805,-1642,425,-574,-1404,-248,101,363,389,-61
72,1,2022-09-30T20:43:03.408770,3347811,-1642,425,-574,-1404,-248,101,363,389,-61
73,1,2022-09-30T20:43:03.414870,3347817,-1642,424,-576,-1406,-275,34,363,389,-61
74,1,2022-09-30T20:43:03.420923,3347823,-1642,424,-576,-1406,-275,34,363,389,-61
75,1,2022-09-30T20:43:03.426415,3347829,-1642,424,-576,-1406,-275,34,363,389,-61
76,1,2022-09-30T20:43:03.432480,3347834,-1638,423,-575,-1419,-299,-28,363,389,-61
77,1,2022-09-30T20:43:03.440559,3347843,-1638,423,-575,-1419,-299,-28,363,389,-61
78,1,2022-09-30T20:43:03.447224,3347849,-1638,423,-575,-1419,-299,-28,363,389,-61
79,1,2022-09-30T20:43:03.452993,3347856,-1642,421,-577,-1432,-300,-113,363,389,-61
80,1,2022-09-30T20:43:03.462598,3347864,-1642,421,-577,-1432,-300,-113,363,389,-61
81,1,2022-09-30T20:43:03.468778,3347871,-1642,421,-577,-1432,-300,-113,363,389,-61
82,1,2022-09-30T20:43:03.474650,3347877,-1637,422,-577,-1458,-307,-175,363,389,-61
83,1,2022-09-30T20:43:03.482979,3347886,-1637,422,-577,-1458,-307,-175,363,389,-61
84,1,2022-09-30T20:43:03.488768,3347891,-1637,422,-577,-1458,-307,-175,363,389,-61
85,1,2022-09-30T20:43:03.495091,3347897,-1641,417,-578,-1475,-308,-208,364,388,-64
86,1,2022-09-30T20:43:03.504354,3347906,-1641,417,-578,-1475,-308,-208,364,388,-64
87,1,2022-09-30T20:43:03.510240,3347912,-1641,417,-578,-1475,-308,-208,364,388,-64
88,1,2022-09-30T20:43:03.516212,3347918,-1644,416,-578,-1503,-299,-199,364,388,-64
89,1,2022-09-30T20:43:03.531176,3347928,-1644,416,-578,-1503,-299,-199,364,388,-64
90,1,2022-09-30T20:43:03.537643,3347940,-1641,408,-577,-1516,-310,-174,364,388,-64
91,1,2022-09-30T20:43:03.547049,3347949,-1641,408,-577,-1516,-310,-174,364,388,-64
92,1,2022-09-30T20:43:03.553134,3347955,-1641,409,-580,-1515,-323,-128,364,388,-64
93,1,2022-09-30T20:43:03.559254,3347961,-1641,409,-580,-1515,-323,-128,364,388,-64
94,1,2022-09-30T20:43:03.565341,3347968,-1641,409,-580,-1515,-323,-128,364,388,-64
95,1,2022-09-30T20:43:03.571116,3347974,-1642,410,-580,-1497,-343,-86,364,388,-64
96,1,2022-09-30T20:43:03.577127,3347979,-1642,410,-580,-1497,-343,-86,364,388,-64
97,1,2022-09-30T20:43:03.584295,3347987,-1642,410,-580,-1497,-343,-86,364,388,-64
98,1,2022-09-30T20:43:03.590487,3347992,-1642,410,-580,-1497,-343,-86,364,388,-64
99,1,2022-09-30T20:43:03.596796,3347999,-1643,411,-578,-1481,-359,-71,364,388,-64
100,1,2022-09-30T20:43:03.602905,3348005,-1643,411,-578,-1481,-359,-71,364,388,-64
101,1,2022-09-30T20:43:03.609168,3348012,-1643,411,-578,-1481,-359,-71,364,388,-64
102,1,2022-09-30T20:43:03.615575,3348018,-1643,418,-575,-1497,-418,-68,369,383,-67
103,1,2022-09-30T20:43:03.621393,3348024,-1643,418,-575,-1497,-418,-68,369,383,-67
104,1,2022-09-30T20:43:03.627429,3348029,-1643,418,-575,-1497,-418,-68,369,383,-67
105,1,2022-09-30T20:43:03.633646,3348036,-1639,413,-577,-1556,-441,-89,369,383,-67
106,1,2022-09-30T20:43:03.643013,3348044,-1639,413,-577,-1556,-441,-89,369,383,-67
107,1,2022-09-30T20:43:03.649473,3348051,-1639,413,-577,-1556,-441,-89,369,383,-67
108,1,2022-09-30T20:43:03.655084,3348058,-1635,412,-574,-1619,-426,-113,369,383,-67
109,1,2022-09-30T20:43:03.665109,3348067,-1635,412,-574,-1619,-426,-113,369,383,-67
110,1,2022-09-30T20:43:03.672283,3348074,-1639,406,-582,-1657,-397,-117,369,383,-67
111,1,2022-09-30T20:43:03.680373,3348082,-1639,406,-582,-1657,-397,-117,369,383,-67
112,1,2022-09-30T20:43:03.687332,3348089,-1639,406,-582,-1657,-397,-117,369,383,-67
113,1,2022-09-30T20:43:03.693262,3348096,-1640,400,-576,-1673,-397,-117,369,383,-67
114,1,2022-09-30T20:43:03.699023,3348102,-1640,400,-576,-1673,-397,-117,369,383,-67
115,1,2022-09-30T20:43:03.706689,3348109,-1640,400,-576,-1673,-397,-117,369,383,-67
116,1,2022-09-30T20:43:03.712792,3348115,-1643,397,-583,-1649,-406,-111,369,383,-67
117,1,2022-09-30T20:43:03.719145,3348121,-1643,397,-583,-1649,-406,-111,369,383,-67
118,1,2022-09-30T20:43:03.727272,3348129,-1643,397,-583,-1649,-406,-111,369,383,-67
119,1,2022-09-30T20:43:03.733067,3348135,-1644,398,-571,-1613,-438,-107,369,383,-67
120,1,2022-09-30T20:43:03.739125,3348142,-1644,398,-571,-1613,-438,-107,369,383,-67
121,1,2022-09-30T20:43:03.745232,3348148,-1644,398,-571,-1613,-438,-107,369,383,-67
122,1,2022-09-30T20:43:03.751553,3348154,-1642,402,-566,-1564,-488,-92,357,395,-65
123,1,2022-09-30T20:43:03.758967,3348161,-1642,402,-566,-1564,-488,-92,357,395,-65
124,1,2022-09-30T20:43:03.767212,3348169,-1642,402,-566,-1564,-488,-92,357,395,-65
125,1,2022-09-30T20:43:03.773741,3348175,-1637,406,-564,-1536,-506,-90,357,395,-65
126,1,2022-09-30T20:43:03.783434,3348186,-1637,406,-564,-1536,-506,-90,357,395,-65
127,1,2022-09-30T20:43:03.790798,3348192,-1637,406,-564,-1536,-506,-90,357,395,-65
128,1,2022-09-30T20:43:03.798180,3348200,-1637,410,-556,-1540,-500,-138,357,395,-65
129,1,2022-09-30T20:43:03.806888,3348209,-1637,410,-556,-1540,-500,-138,357,395,-65
130,1,2022-09-30T20:43:03.813248,3348215,-1636,409,-554,-1577,-493,-204,357,395,-65
131,1,2022-09-30T20:43:03.822073,3348225,-1636,409,-554,-1577,-493,-204,357,395,-65
132,1,2022-09-30T20:43:03.829623,3348232,-1636,409,-554,-1577,-493,-204,357,395,-65
133,1,2022-09-30T20:43:03.835615,3348238,-1634,402,-555,-1628,-459,-245,357,395,-65
134,1,2022-09-30T20:43:03.841961,3348244,-1634,402,-555,-1628,-459,-245,357,395,-65
135,1,2022-09-30T20:43:03.848391,3348250,-1634,402,-555,-1628,-459,-245,357,395,-65
136,1,2022-09-30T20:43:03.854928,3348257,-1627,391,-562,-1647,-374,-225,357,395,-65
137,1,2022-09-30T20:43:03.861532,3348263,-1627,391,-562,-1647,-374,-225,357,395,-65
138,1,2022-09-30T20:43:03.867498,3348270,-1627,391,-562,-1647,-374,-225,357,395,-65
139,1,2022-09-30T20:43:03.873735,3348276,-1627,382,-562,-1606,-236,-204,371,389,-67
140,1,2022-09-30T20:43:03.879300,3348282,-1627,382,-562,-1606,-236,-204,371,389,-67
141,1,2022-09-30T20:43:03.885649,3348288,-1627,382,-562,-1606,-236,-204,371,389,-67
142,1,2022-09-30T20:43:03.892732,3348294,-1643,380,-568,-1523,-148,-186,371,389,-67
143,1,2022-09-30T20:43:03.899567,3348301,-1643,380,-568,-1523,-148,-186,371,389,-67
144,1,2022-09-30T20:43:03.906743,3348310,-1643,380,-568,-1523,-148,-186,371,389,-67
145,1,2022-09-30T20:43:03.913079,3348315,-1647,382,-572,-1419,-163,-168,371,389,-67
146,1,2022-09-30T20:43:03.919288,3348322,-1647,382,-572,-1419,-163,-168,371,389,-67
147,1,2022-09-30T20:43:03.925285,3348328,-1647,382,-572,-1419,-163,-168,371,389,-67
148,1,2022-09-30T20:43:03.952433,3348333,-1640,383,-578,-1339,-243,-159,371,389,-67
149,1,2022-09-30T20:43:03.958647,3348361,-1640,391,-576,-1309,-294,-153,371,389,-67
150,1,2022-09-30T20:43:03.964422,3348366,-1640,391,-576,-1309,-294,-153,371,389,-67
151,1,2022-09-30T20:43:03.970647,3348373,-1636,397,-574,-1342,-309,-140,371,389,-67
152,1,2022-09-30T20:43:03.976982,3348379,-1636,397,-574,-1342,-309,-140,371,389,-67
153,1,2022-09-30T20:43:03.984893,3348387,-1636,397,-574,-1342,-309,-140,371,389,-67
154,1,2022-09-30T20:43:03.991491,3348393,-1639,402,-569,-1412,-301,-115,375,379,-67
155,1,2022-09-30T20:43:03.999871,3348403,-1639,402,-569,-1412,-301,-115,375,379,-67
156,1,2022-09-30T20:43:04.007340,3348410,-1639,402,-569,-1412,-301,-115,375,379,-67
157,1,2022-09-30T20:43:04.013759,3348416,-1648,401,-568,-1519,-301,-63,375,379,-67
158,1,2022-09-30T20:43:04.019707,3348421,-1648,401,-568,-1519,-301,-63,375,379,-67
159,1,2022-09-30T20:43:04.027636,3348429,-1648,401,-568,-1519,-301,-63,375,379,-67
160,1,2022-09-30T20:43:04.034094,3348436,-1643,398,-572,-1608,-342,-19,375,379,-67
161,1,2022-09-30T20:43:04.039744,3348442,-1643,398,-572,-1608,-342,-19,375,379,-67
162,1,2022-09-30T20:43:04.045353,3348448,-1643,398,-572,-1608,-342,-19,375,379,-67
163,1,2022-09-30T20:43:04.051757,3348454,-1634,394,-570,-1669,-365,27,375,379,-67
164,1,2022-09-30T20:43:04.057761,3348460,-1634,394,-570,-1669,-365,27,375,379,-67
165,1,2022-09-30T20:43:04.063534,3348466,-1634,394,-570,-1669,-365,27,375,379,-67
166,1,2022-09-30T20:43:04.069536,3348471,-1634,394,-570,-1669,-365,27,375,379,-67
167,1,2022-09-30T20:43:04.075628,3348477,-1650,395,-566,-1666,-370,30,375,379,-67
168,1,2022-09-30T20:43:04.141613,3348543,-1633,400,-565,-1523,-364,100,366,390,-66
169,1,2022-09-30T20:43:04.148075,3348550,-1633,400,-565,-1523,-364,100,366,390,-66
170,1,2022-09-30T20:43:04.155630,3348556,-1637,406,-564,-1469,-307,70,366,390,-66
171,1,2022-09-30T20:43:04.162500,3348564,-1637,406,-564,-1469,-307,70,366,390,-66
172,1,2022-09-30T20:43:04.170189,3348572,-1637,406,-564,-1469,-307,70,366,390,-66
173,1,2022-09-30T20:43:04.176644,3348579,-1637,407,-568,-1443,-323,2,366,390,-66
174,1,2022-09-30T20:43:04.187009,3348589,-1637,407,-568,-1443,-323,2,366,390,-66
175,1,2022-09-30T20:43:04.193806,3348596,-1636,401,-565,-1452,-328,-65,366,390,-66
176,1,2022-09-30T20:43:04.200220,3348602,-1636,401,-565,-1452,-328,-65,366,390,-66
177,1,2022-09-30T20:43:04.206884,3348609,-1636,401,-565,-1452,-328,-65,366,390,-66
178,1,2022-09-30T20:43:04.213272,3348616,-1637,404,-566,-1478,-325,-118,366,390,-66
179,1,2022-09-30T20:43:04.223770,3348626,-1637,404,-566,-1478,-325,-118,366,390,-66
180,1,2022-09-30T20:43:04.230201,3348632,-1637,404,-566,-1478,-325,-118,366,390,-66
181,1,2022-09-30T20:43:04.236358,3348638,-1638,409,-566,-1506,-310,-110,366,390,-66
182,1,2022-09-30T20:43:04.245868,3348648,-1638,409,-566,-1506,-310,-110,366,390,-66
183,1,2022-09-30T20:43:04.251635,3348654,-1631,407,-566,-1539,-295,-76,365,387,-63
184,1,2022-09-30T20:43:04.257944,3348660,-1631,407,-566,-1539,-295,-76,365,387,-63
185,1,2022-09-30T20:43:04.269519,3348669,-1631,407,-566,-1539,-295,-76,365,387,-63
186,1,2022-09-30T20:43:04.275701,3348677,-1636,404,-570,-1565,-277,-64,365,387,-63
187,1,2022-09-30T20:43:04.285346,3348687,-1636,404,-570,-1565,-277,-64,365,387,-63
188,1,2022-09-30T20:43:04.295850,3348698,-1639,397,-575,-1562,-245,-58,365,387,-63
189,1,2022-09-30T20:43:04.301870,3348704,-1639,397,-575,-1562,-245,-58,365,387,-63
190,1,2022-09-30T20:43:04.307972,3348710,-1639,397,-575,-1562,-245,-58,365,387,-63
191,1,2022-09-30T20:43:04.315051,3348716,-1639,397,-575,-1562,-245,-58,365,387,-63
192,1,2022-09-30T20:43:04.321423,3348723,-1639,397,-575,-1562,-245,-58,365,387,-63
193,1,2022-09-30T20:43:04.327534,3348729,-1639,397,-575,-1562,-245,-58,365,387,-63
194,1,2022-09-30T20:43:04.333617,3348736,-1640,393,-577,-1500,-264,-85,365,387,-63
195,1,2022-09-30T20:43:04.340009,3348742,-1640,393,-577,-1500,-264,-85,365,387,-63
196,1,2022-09-30T20:43:04.345897,3348748,-1640,393,-577,-1500,-264,-85,365,387,-63
197,1,2022-09-30T20:43:04.352476,3348754,-1640,394,-577,-1466,-301,-97,365,387,-63
198,1,2022-09-30T20:43:04.358480,3348761,-1640,394,-577,-1466,-301,-97,365,387,-63
199,1,2022-09-30T20:43:04.364583,3348766,-1640,394,-577,-1466,-301,-97,365,387,-63
200,1,2022-09-30T20:43:04.370577,3348772,-1640,394,-577,-1466,-301,-97,365,387,-63
201,1,2022-09-30T20:43:04.376612,3348779,-1637,402,-571,-1445,-328,-111,371,391,-63
202,1,2022-09-30T20:43:04.381832,3348785,-1637,402,-571,-1445,-328,-111,371,391,-63
203,1,2022-09-30T20:43:04.387482,3348790,-1637,402,-571,-1445,-328,-111,371,391,-63
204,1,2022-09-30T20:43:04.394324,3348796,-1635,404,-571,-1458,-338,-131,371,391,-63
205,1,2022-09-30T20:43:04.400136,3348802,-1635,404,-571,-1458,-338,-131,371,391,-63
206,1,2022-09-30T20:43:04.406342,3348808,-1635,404,-571,-1458,-338,-131,371,391,-63
207,1,2022-09-30T20:43:04.412705,3348814,-1639,409,-577,-1492,-337,-145,371,391,-63
208,1,2022-09-30T20:43:04.418641,3348820,-1639,409,-577,-1492,-337,-145,371,391,-63
209,1,2022-09-30T20:43:04.424797,3348827,-1639,409,-577,-1492,-337,-145,371,391,-63
210,1,2022-09-30T20:43:04.430843,3348833,-1636,405,-571,-1549,-360,-138,371,391,-63
211,1,2022-09-30T20:43:04.438907,3348841,-1636,405,-571,-1549,-360,-138,371,391,-63
212,1,2022-09-30T20:43:04.447120,3348849,-1636,405,-571,-1549,-360,-138,371,391,-63
213,1,2022-09-30T20:43:04.452430,3348855,-1638,401,-568,-1596,-362,-114,371,391,-63
214,1,2022-09-30T20:43:04.460277,3348862,-1638,401,-568,-1596,-362,-114,371,391,-63
215,1,2022-09-30T20:43:04.466853,3348869,-1638,401,-568,-1596,-362,-114,371,391,-63
216,1,2022-09-30T20:43:04.472295,3348875,-1638,399,-574,-1607,-354,-90,371,391,-63
217,1,2022-09-30T20:43:04.478209,3348881,-1638,399,-574,-1607,-354,-90,371,391,-63
218,1,2022-09-30T20:43:04.483913,3348886,-1638,399,-574,-1607,-354,-90,371,391,-63
219,1,2022-09-30T20:43:04.489485,3348892,-1638,399,-574,-1607,-354,-90,371,391,-63
220,1,2022-09-30T20:43:04.495981,3348898,-1639,396,-570,-1593,-344,-74,370,382,-72
221,1,2022-09-30T20:43:04.505343,3348908,-1639,396,-570,-1593,-344,-74,370,382,-72
222,1,2022-09-30T20:43:04.511191,3348914,-1637,395,-569,-1550,-354,-81,370,382,-72
223,1,2022-09-30T20:43:04.520864,3348923,-1637,395,-569,-1550,-354,-81,370,382,-72
224,1,2022-09-30T20:43:04.528069,3348929,-1637,395,-569,-1550,-354,-81,370,382,-72
225,1,2022-09-30T20:43:04.533940,3348936,-1636,395,-573,-1499,-377,-91,370,382,-72
226,1,2022-09-30T20:43:04.540291,3348942,-1636,395,-573,-1499,-377,-91,370,382,-72
227,1,2022-09-30T20:43:04.548826,3348952,-1636,395,-573,-1499,-377,-91,370,382,-72
228,1,2022-09-30T20:43:04.554955,3348957,-1633,397,-571,-1449,-379,-101,370,382,-72
229,1,2022-09-30T20:43:04.562879,3348965,-1633,397,-571,-1449,-379,-101,370,382,-72
230,1,2022-09-30T20:43:04.569684,3348972,-1633,397,-571,-1449,-379,-101,370,382,-72
231,1,2022-09-30T20:43:04.575390,3348978,-1632,401,-568,-1421,-361,-126,370,382,-72
232,1,2022-09-30T20:43:04.585778,3348988,-1632,401,-568,-1421,-361,-126,370,382,-72
233,1,2022-09-30T20:43:04.592244,3348994,-1633,408,-572,-1417,-366,-167,370,382,-72
234,1,2022-09-30T20:43:04.598349,3349001,-1633,408,-572,-1417,-366,-167,370,382,-72
235,1,2022-09-30T20:43:04.604550,3349007,-1633,408,-572,-1417,-366,-167,370,382,-72
236,1,2022-09-30T20:43:04.610274,3349013,-1633,408,-572,-1417,-366,-167,370,382,-72
237,1,2022-09-30T20:43:04.616165,3349018,-1639,409,-560,-1451,-347,-208,371,389,-67
238,1,2022-09-30T20:43:04.626644,3349028,-1639,409,-560,-1451,-347,-208,371,389,-67
239,1,2022-09-30T20:43:04.633748,3349036,-1634,406,-560,-1515,-333,-202,371,389,-67
240,1,2022-09-30T20:43:04.639817,3349042,-1634,406,-560,-1515,-333,-202,371,389,-67
241,1,2022-09-30T20:43:04.645527,3349048,-1634,406,-560,-1515,-333,-202,371,389,-67
242,1,2022-09-30T20:43:04.651372,3349054,-1626,395,-566,-1564,-293,-184,371,389,-67
243,1,2022-09-30T20:43:04.657088,3349059,-1626,395,-566,-1564,-293,-184,371,389,-67
244,1,2022-09-30T20:43:04.664116,3349066,-1626,395,-566,-1564,-293,-184,371,389,-67
245,1,2022-09-30T20:43:04.670464,3349072,-1626,395,-566,-1564,-293,-184,371,389,-67
246,1,2022-09-30T20:43:04.676431,3349079,-1636,386,-570,-1558,-222,-209,371,389,-67
247,1,2022-09-30T20:43:04.681893,3349084,-1636,386,-570,-1558,-222,-209,371,389,-67
248,1,2022-09-30T20:43:04.687375,3349090,-1636,386,-570,-1558,-222,-209,371,389,-67
249,1,2022-09-30T20:43:04.693452,3349095,-1643,374,-577,-1521,-211,-268,371,389,-67
250,1,2022-09-30T20:43:04.698827,3349101,-1643,374,-577,-1521,-211,-268,371,389,-67
251,1,2022-09-30T20:43:04.704331,3349106,-1643,374,-577,-1521,-211,-268,371,389,-67
252,1,2022-09-30T20:43:04.710421,3349112,-1643,374,-577,-1521,-211,-268,371,389,-67
253,1,2022-09-30T20:43:04.716682,3349118,-1641,369,-575,-1464,-253,-335,371,389,-67
254,1,2022-09-30T20:43:04.722618,3349125,-1641,369,-575,-1464,-253,-335,371,389,-67
255,1,2022-09-30T20:43:04.728095,3349131,-1641,369,-575,-1464,-253,-335,371,389,-67
256,1,2022-09-30T20:43:04.733391,3349136,-1636,369,-576,-1396,-307,-350,371,389,-67
257,1,2022-09-30T20:43:04.739479,3349142,-1636,369,-576,-1396,-307,-350,371,389,-67
258,1,2022-09-30T20:43:04.745541,3349147,-1636,369,-576,-1396,-307,-350,371,389,-67
259,1,2022-09-30T20:43:04.751226,3349153,-1638,371,-576,-1376,-349,-303,375,385,-65
260,1,2022-09-30T20:43:04.757211,3349159,-1638,371,-576,-1376,-349,-303,375,385,-65
261,1,2022-09-30T20:43:04.765097,3349167,-1638,371,-576,-1376,-349,-303,375,385,-65
262,1,2022-09-30T20:43:04.771179,3349174,-1638,373,-576,-1380,-369,-202,375,385,-65
263,1,2022-09-30T20:43:04.777599,3349180,-1638,373,-576,-1380,-369,-202,375,385,-65
264,1,2022-09-30T20:43:04.784440,3349186,-1638,373,-576,-1380,-369,-202,375,385,-65
265,1,2022-09-30T20:43:04.790589,3349192,-1638,373,-576,-1380,-369,-202,375,385,-65
266,1,2022-09-30T20:43:04.796308,3349198,-1635,377,-571,-1411,-367,-91,375,385,-65
267,1,2022-09-30T20:43:04.802337,3349204,-1635,377,-571,-1411,-367,-91,375,385,-65
268,1,2022-09-30T20:43:04.807659,3349211,-1635,377,-571,-1411,-367,-91,375,385,-65
269,1,2022-09-30T20:43:04.813533,3349216,-1636,377,-571,-1450,-342,2,375,385,-65
270,1,2022-09-30T20:43:04.819537,3349221,-1636,377,-571,-1450,-342,2,375,385,-65
271,1,2022-09-30T20:43:04.827473,3349230,-1636,377,-571,-1450,-342,2,375,385,-65
272,1,2022-09-30T20:43:04.832998,3349235,-1627,375,-575,-1492,-307,92,375,385,-65
273,1,2022-09-30T20:43:04.838628,3349241,-1627,375,-575,-1492,-307,92,375,385,-65
274,1,2022-09-30T20:43:04.846852,3349250,-1627,375,-575,-1492,-307,92,375,385,-65
275,1,2022-09-30T20:43:04.852704,3349255,-1645,376,-578,-1469,-253,127,375,385,-65
276,1,2022-09-30T20:43:04.858789,3349261,-1645,376,-578,-1469,-253,127,375,385,-65
277,1,2022-09-30T20:43:04.864234,3349267,-1645,376,-578,-1469,-253,127,375,385,-65
278,1,2022-09-30T20:43:04.870186,3349272,-1645,376,-578,-1469,-253,127,375,385,-65
279,1,2022-09-30T20:43:04.876084,3349278,-1646,379,-573,-1444,-307,182,372,388,-70
280,1,2022-09-30T20:43:04.882083,3349284,-1646,379,-573,-1444,-307,182,372,388,-70
281,1,2022-09-30T20:43:04.887667,3349289,-1646,379,-573,-1444,-307,182,372,388,-70
282,1,2022-09-30T20:43:04.894860,3349296,-1623,384,-575,-1421,-373,235,372,388,-70
283,1,2022-09-30T20:43:04.900802,3349303,-1623,384,-575,-1421,-373,235,372,388,-70
284,1,2022-09-30T20:43:04.930029,3349311,-1623,384,-575,-1421,-373,235,372,388,-70
285,1,2022-09-30T20:43:04.936122,3349338,-1642,394,-574,-1376,-276,221,372,388,-70
286,1,2022-09-30T20:43:04.942127,3349344,-1642,394,-574,-1376,-276,221,372,388,-70
287,1,2022-09-30T20:43:04.948013,3349350,-1642,394,-574,-1376,-276,221,372,388,-70
288,1,2022-09-30T20:43:04.953642,3349356,-1646,397,-579,-1385,-303,163,372,388,-70
289,1,2022-09-30T20:43:04.959756,3349362,-1646,397,-579,-1385,-303,163,372,388,-70
290,1,2022-09-30T20:43:04.966077,3349368,-1646,397,-579,-1385,-303,163,372,388,-70
291,1,2022-09-30T20:43:04.971552,3349373,-1642,399,-572,-1410,-366,80,372,388,-70
292,1,2022-09-30T20:43:04.977949,3349380,-1642,399,-572,-1410,-366,80,372,388,-70
293,1,2022-09-30T20:43:04.983379,3349386,-1642,399,-572,-1410,-366,80,372,388,-70
294,1,2022-09-30T20:43:04.990146,3349392,-1642,399,-572,-1410,-366,80,372,388,-70
295,1,2022-09-30T20:43:04.995771,3349398,-1641,404,-567,-1447,-425,7,370,388,-62
296,1,2022-09-30T20:43:05.001598,3349404,-1641,404,-567,-1447,-425,7,370,388,-62
297,1,2022-09-30T20:43:05.006826,3349409,-1641,404,-567,-1447,-425,7,370,388,-62
298,1,2022-09-30T20:43:05.013380,3349415,-1638,410,-565,-1494,-467,-23,370,388,-62
299,1,2022-09-30T20:43:05.023073,3349426,-1638,410,-565,-1494,-467,-23,370,388,-62
300,1,2022-09-30T20:43:05.028989,3349431,-1638,410,-565,-1494,-467,-23,370,388,-62
301,1,2022-09-30T20:43:05.035287,3349437,-1635,406,-570,-1540,-476,8,370,388,-62
302,1,2022-09-30T20:43:05.042727,3349445,-1635,406,-570,-1540,-476,8,370,388,-62
303,1,2022-09-30T20:43:05.048330,3349450,-1635,406,-570,-1540,-476,8,370,388,-62
304,1,2022-09-30T20:43:05.054655,3349456,-1634,405,-568,-1583,-462,41,370,388,-62
305,1,2022-09-30T20:43:05.060486,3349463,-1634,405,-568,-1583,-462,41,370,388,-62
306,1,2022-09-30T20:43:05.071625,3349469,-1634,405,-568,-1583,-462,41,370,388,-62
307,1,2022-09-30T20:43:05.077335,3349480,-1638,396,-564,-1611,-434,55,370,388,-62
308,1,2022-09-30T20:43:05.082993,3349485,-1638,396,-564,-1611,-434,55,370,388,-62
309,1,2022-09-30T20:43:05.088345,3349491,-1638,396,-564,-1611,-434,55,370,388,-62
310,1,2022-09-30T20:43:05.093976,3349496,-1636,394,-568,-1599,-397,51,370,388,-62
311,1,2022-09-30T20:43:05.100064,3349502,-1636,394,-568,-1599,-397,51,370,388,-62
312,1,2022-09-30T20:43:05.105981,3349509,-1636,394,-568,-1599,-397,51,370,388,-62
313,1,2022-09-30T20:43:05.111941,3349514,-1641,391,-566,-1541,-365,30,361,387,-67
314,1,2022-09-30T20:43:05.117688,3349520,-1641,391,-566,-1541,-365,30,361,387,-67
315,1,2022-09-30T20:43:05.123986,3349526,-1641,391,-566,-1541,-365,30,361,387,-67
316,1,2022-09-30T20:43:05.130013,3349532,-1641,391,-566,-1541,-365,30,361,387,-67
317,1,2022-09-30T20:43:05.136061,3349538,-1642,392,-562,-1470,-365,28,361,387,-67
318,1,2022-09-30T20:43:05.141813,3349544,-1642,392,-562,-1470,-365,28,361,387,-67
319,1,2022-09-30T20:43:05.147782,3349551,-1642,392,-562,-1470,-365,28,361,387,-67
320,1,2022-09-30T20:43:05.153402,3349556,-1639,393,-564,-1398,-373,51,361,387,-67
321,1,2022-09-30T20:43:05.159159,3349562,-1639,393,-564,-1398,-373,51,361,387,-67
322,1,2022-09-30T20:43:05.165005,3349567,-1639,393,-564,-1398,-373,51,361,387,-67
323,1,2022-09-30T20:43:05.171427,3349573,-1639,404,-561,-1360,-385,88,361,387,-67
324,1,2022-09-30T20:43:05.177313,3349579,-1639,404,-561,-1360,-385,88,361,387,-67
325,1,2022-09-30T20:43:05.183033,3349585,-1639,404,-561,-1360,-385,88,361,387,-67
326,1,2022-09-30T20:43:05.188282,3349591,-1639,404,-561,-1360,-385,88,361,387,-67
327,1,2022-09-30T20:43:05.194904,3349597,-1639,406,-562,-1364,-389,110,361,387,-67
328,1,2022-09-30T20:43:05.201115,3349603,-1639,406,-562,-1364,-389,110,361,387,-67
329,1,2022-09-30T20:43:05.207027,3349609,-1639,406,-562,-1364,-389,110,361,387,-67
330,1,2022-09-30T20:43:05.212196,3349614,-1638,412,-561,-1408,-381,123,361,387,-67
331,1,2022-09-30T20:43:05.217587,3349620,-1638,412,-561,-1408,-381,123,361,387,-67
332,1,2022-09-30T20:43:05.223660,3349625,-1638,412,-561,-1408,-381,123,361,387,-67
333,1,2022-09-30T20:43:05.229030,3349632,-1638,412,-561,-1408,-381,123,361,387,-67
334,1,2022-09-30T20:43:05.234860,3349638,-1633,413,-563,-1455,-361,126,361,387,-67
335,1,2022-09-30T20:43:05.240700,3349643,-1633,413,-563,-1455,-361,126,361,387,-67
336,1,2022-09-30T20:43:05.246575,3349649,-1633,413,-563,-1455,-361,126,361,387,-67
337,1,2022-09-30T20:43:05.251874,3349654,-1632,407,-565,-1509,-327,131,363,385,-63
338,1,2022-09-30T20:43:05.257169,3349659,-1632,407,-565,-1509,-327,131,363,385,-63
339,1,2022-09-30T20:43:05.264464,3349667,-1632,407,-565,-1509,-327,131,363,385,-63
340,1,2022-09-30T20:43:05.270341,3349672,-1632,407,-565,-1509,-327,131,363,385,-63
341,1,2022-09-30T20:43:05.276342,3349679,-1639,406,-569,-1533,-299,112,363,385,-63
342,1,2022-09-30T20:43:05.281622,3349684,-1639,406,-569,-1533,-299,112,363,385,-63
343,1,2022-09-30T20:43:05.287308,3349690,-1639,406,-569,-1533,-299,112,363,385,-63
344,1,2022-09-30T20:43:05.293463,3349696,-1639,404,-569,-1519,-310,83,363,385,-63
345,1,2022-09-30T20:43:05.299416,3349702,-1639,404,-569,-1519,-310,83,363,385,-63
346,1,2022-09-30T20:43:05.304940,3349707,-1639,404,-569,-1519,-310,83,363,385,-63
347,1,2022-09-30T20:43:05.310787,3349713,-1639,404,-569,-1519,-310,83,363,385,-63
348,1,2022-09-30T20:43:05.317778,3349719,-1644,405,-569,-1484,-339,50,363,385,-63
349,1,2022-09-30T20:43:05.323360,3349726,-1644,405,-569,-1484,-339,50,363,385,-63
350,1,2022-09-30T20:43:05.329077,3349732,-1644,405,-569,-1484,-339,50,363,385,-63
351,1,2022-09-30T20:43:05.335039,3349737,-1640,406,-570,-1441,-387,40,363,385,-63
352,1,2022-09-30T20:43:05.341228,3349743,-1640,406,-570,-1441,-387,40,363,385,-63
353,1,2022-09-30T20:43:05.346879,3349749,-1640,406,-570,-1441,-387,40,363,385,-63
354,1,2022-09-30T20:43:05.352568,3349754,-1640,412,-568,-1421,-409,13,363,385,-63
355,1,2022-09-30T20:43:05.358595,3349762,-1640,412,-568,-1421,-409,13,363,385,-63
356,1,2022-09-30T20:43:05.363952,3349767,-1640,412,-568,-1421,-409,13,363,385,-63
357,1,2022-09-30T20:43:05.369783,3349772,-1640,412,-568,-1421,-409,13,363,385,-63
358,1,2022-09-30T20:43:05.375457,3349778,-1634,418,-558,-1436,-443,-1,372,390,-62
359,1,2022-09-30T20:43:05.381162,3349783,-1634,418,-558,-1436,-443,-1,372,390,-62
360,1,2022-09-30T20:43:05.386886,3349789,-1634,418,-558,-1436,-443,-1,372,390,-62
361,1,2022-09-30T20:43:05.392493,3349794,-1640,418,-554,-1493,-452,-18,372,390,-62
362,1,2022-09-30T20:43:05.398131,3349800,-1640,418,-554,-1493,-452,-18,372,390,-62
363,1,2022-09-30T20:43:05.405359,3349808,-1640,418,-554,-1493,-452,-18,372,390,-62
364,1,2022-09-30T20:43:05.411073,3349814,-1640,418,-554,-1493,-452,-18,372,390,-62
365,1,2022-09-30T20:43:05.416902,3349819,-1638,412,-561,-1562,-421,-29,372,390,-62
366,1,2022-09-30T20:43:05.423210,3349825,-1638,412,-561,-1562,-421,-29,372,390,-62
367,1,2022-09-30T20:43:05.428691,3349831,-1638,412,-561,-1562,-421,-29,372,390,-62
368,1,2022-09-30T20:43:05.434259,3349836,-1629,404,-567,-1596,-375,-28,372,390,-62
369,1,2022-09-30T20:43:05.439800,3349842,-1629,404,-567,-1596,-375,-28,372,390,-62
370,1,2022-09-30T20:43:05.448200,3349851,-1629,404,-567,-1596,-375,-28,372,390,-62
371,1,2022-09-30T20:43:05.453472,3349856,-1633,397,-563,-1566,-292,-53,372,390,-62
372,1,2022-09-30T20:43:05.459079,3349861,-1633,397,-563,-1566,-292,-53,372,390,-62
373,1,2022-09-30T20:43:05.464679,3349867,-1633,397,-563,-1566,-292,-53,372,390,-62
374,1,2022-09-30T20:43:05.470065,3349872,-1633,397,-563,-1566,-292,-53,372,390,-62
375,1,2022-09-30T20:43:05.476197,3349878,-1640,393,-571,-1494,-268,-103,372,390,-62
376,1,2022-09-30T20:43:05.481622,3349884,-1640,393,-571,-1494,-268,-103,372,390,-62
377,1,2022-09-30T20:43:05.487259,3349890,-1640,393,-571,-1494,-268,-103,372,390,-62
378,1,2022-09-30T20:43:05.493574,3349896,-1642,387,-566,-1396,-297,-141,374,388,-62
379,1,2022-09-30T20:43:05.499414,3349902,-1642,387,-566,-1396,-297,-141,374,388,-62
380,1,2022-09-30T20:43:05.505011,3349907,-1642,387,-566,-1396,-297,-141,374,388,-62
381,1,2022-09-30T20:43:05.511003,3349913,-1642,387,-566,-1396,-297,-141,374,388,-62
382,1,2022-09-30T20:43:05.517152,3349919,-1634,394,-570,-1324,-343,-149,374,388,-62
383,1,2022-09-30T20:43:05.522756,3349925,-1634,394,-570,-1324,-343,-149,374,388,-62
384,1,2022-09-30T20:43:05.528425,3349931,-1634,394,-570,-1324,-343,-149,374,388,-62
385,1,2022-09-30T20:43:05.534405,3349937,-1642,405,-565,-1298,-347,-134,374,388,-62
386,1,2022-09-30T20:43:05.540280,3349943,-1642,405,-565,-1298,-347,-134,374,388,-62
387,1,2022-09-30T20:43:05.545761,3349948,-1642,405,-565,-1298,-347,-134,374,388,-62
388,1,2022-09-30T20:43:05.555772,3349954,-1638,411,-560,-1330,-340,-89,374,388,-62
389,1,2022-09-30T20:43:05.572951,3349971,-1638,411,-560,-1330,-340,-89,374,388,-62
390,1,2022-09-30T20:43:05.598547,3349993,-1642,412,-557,-1415,-316,-29,374,388,-62
391,1,2022-09-30T20:43:05.619971,3350011,-1644,412,-561,-1494,-278,34,374,388,-62
392,1,2022-09-30T20:43:05.629236,3350032,-1636,409,-569,-1534,-280,120,362,390,-72
393,1,2022-09-30T20:43:05.643249,3350043,-1647,413,-564,-1532,-269,160,362,390,-72
394,1,2022-09-30T20:43:05.651163,3350053,-1652,415,-564,-1509,-354,157,362,390,-72
395,1,2022-09-30T20:43:05.658711,3350062,-1652,415,-564,-1509,-354,157,362,390,-72
396,1,2022-09-30T20:43:05.669466,3350069,-1652,415,-564,-1509,-354,157,362,390,-72
397,1,2022-09-30T20:43:05.676034,3350078,-1633,414,-567,-1486,-453,155,362,390,-72
398,1,2022-09-30T20:43:05.686225,3350088,-1633,414,-567,-1486,-453,155,362,390,-72
399,1,2022-09-30T20:43:05.693056,3350094,-1634,413,-564,-1465,-406,132,362,390,-72
400,1,2022-09-30T20:43:05.700446,3350103,-1634,413,-564,-1465,-406,132,362,390,-72
401,1,2022-09-30T20:43:05.709653,3350112,-1634,413,-564,-1465,-406,132,362,390,-72
402,1,2022-09-30T20:43:05.716022,3350118,-1645,414,-562,-1428,-374,58,362,390,-72
403,1,2022-09-30T20:43:05.723560,3350126,-1645,414,-562,-1428,-374,58,362,390,-72
404,1,2022-09-30T20:43:05.731484,3350134,-1643,412,-562,-1415,-422,-31,362,390,-72
405,1,2022-09-30T20:43:05.739641,3350141,-1643,412,-562,-1415,-422,-31,362,390,-72
406,1,2022-09-30T20:43:05.747557,3350150,-1643,412,-562,-1415,-422,-31,362,390,-72
407,1,2022-09-30T20:43:05.753809,3350156,-1631,410,-558,-1427,-444,-111,370,388,-62
408,1,2022-09-30T20:43:05.761355,3350164,-1631,410,-558,-1427,-444,-111,370,388,-62
409,1,2022-09-30T20:43:05.768884,3350171,-1631,410,-558,-1427,-444,-111,370,388,-62
410,1,2022-09-30T20:43:05.774765,3350177,-1628,410,-554,-1442,-372,-159,370,388,-62
411,1,2022-09-30T20:43:05.782473,3350184,-1628,410,-554,-1442,-372,-159,370,388,-62
412,1,2022-09-30T20:43:05.788932,3350192,-1628,410,-554,-1442,-372,-159,370,388,-62
413,1,2022-09-30T20:43:05.796854,3350200,-1636,415,-555,-1442,-296,-117,370,388,-62
414,1,2022-09-30T20:43:05.805460,3350208,-1636,415,-555,-1442,-296,-117,370,388,-62
415,1,2022-09-30T20:43:05.811318,3350214,-1641,414,-559,-1424,-268,-9,370,388,-62
416,1,2022-09-30T20:43:05.818756,3350221,-1641,414,-559,-1424,-268,-9,370,388,-62
417,1,2022-09-30T20:43:05.825466,3350228,-1641,414,-559,-1424,-268,-9,370,388,-62
418,1,2022-09-30T20:43:05.830997,3350234,-1641,414,-559,-1424,-268,-9,370,388,-62
419,1,2022-09-30T20:43:05.837194,3350240,-1635,413,-570,-1411,-249,85,370,388,-62
420,1,2022-09-30T20:43:05.847298,3350250,-1635,413,-570,-1411,-249,85,370,388,-62
421,1,2022-09-30T20:43:05.856902,3350259,-1637,414,-568,-1392,-217,85,370,388,-62
422,1,2022-09-30T20:43:05.866249,3350268,-1637,414,-568,-1392,-217,85,370,388,-62
423,1,2022-09-30T20:43:05.872273,3350275,-1640,419,-565,-1377,-220,49,370,394,-70
424,1,2022-09-30T20:43:05.878285,3350281,-1640,419,-565,-1377,-220,49,370,394,-70
425,1,2022-09-30T20:43:05.886520,3350288,-1640,419,-565,-1377,-220,49,370,394,-70
426,1,2022-09-30T20:43:05.898849,3350301,-1642,420,-565,-1368,-243,-8,370,394,-70
427,1,2022-09-30T20:43:05.909955,3350312,-1642,420,-565,-1368,-243,-8,370,394,-70
428,1,2022-09-30T20:43:05.918668,3350321,-1644,421,-567,-1365,-263,-64,370,394,-70
429,1,2022-09-30T20:43:05.930388,3350333,-1644,421,-567,-1365,-263,-64,370,394,-70
430,1,2022-09-30T20:43:06.006352,3350339,-1641,419,-565,-1372,-285,-124,370,394,-70
431,1,2022-09-30T20:43:06.014121,3350416,-1640,409,-562,-1513,-432,-110,364,396,-68
432,1,2022-09-30T20:43:06.027565,3350430,-1640,409,-562,-1513,-432,-110,364,396,-68
433,1,2022-09-30T20:43:06.034885,3350437,-1634,403,-563,-1519,-418,-91,364,396,-68
434,1,2022-09-30T20:43:06.041026,3350443,-1634,403,-563,-1519,-418,-91,364,396,-68
435,1,2022-09-30T20:43:06.052792,3350455,-1631,402,-559,-1492,-379,-61,364,396,-68
436,1,2022-09-30T20:43:06.060418,3350463,-1631,402,-559,-1492,-379,-61,364,396,-68
437,1,2022-09-30T20:43:06.068007,3350470,-1631,402,-559,-1492,-379,-61,364,396,-68
438,1,2022-09-30T20:43:06.076421,3350479,-1630,399,-560,-1420,-334,-26,364,396,-68
439,1,2022-09-30T20:43:06.085150,3350488,-1630,399,-560,-1420,-334,-26,364,396,-68
440,1,2022-09-30T20:43:06.092054,3350494,-1630,399,-560,-1420,-334,-26,364,396,-68
441,1,2022-09-30T20:43:06.099703,3350502,-1637,396,-564,-1333,-271,-28,364,396,-68
442,1,2022-09-30T20:43:06.107582,3350510,-1637,396,-564,-1333,-271,-28,364,396,-68
443,1,2022-09-30T20:43:06.112938,3350515,-1639,403,-561,-1244,-216,-41,360,400,-60
444,1,2022-09-30T20:43:06.121793,3350523,-1639,403,-561,-1244,-216,-41,360,400,-60
445,1,2022-09-30T20:43:06.129661,3350533,-1639,403,-561,-1244,-216,-41,360,400,-60
446,1,2022-09-30T20:43:06.137775,3350541,-1639,403,-561,-1244,-216,-41,360,400,-60
447,1,2022-09-30T20:43:06.146508,3350549,-1639,403,-561,-1244,-216,-41,360,400,-60
448,1,2022-09-30T20:43:06.202757,3350604,-1636,424,-571,-1209,-179,46,360,400,-60
449,1,2022-09-30T20:43:06.211657,3350615,-1638,421,-575,-1254,-126,15,360,400,-60
450,1,2022-09-30T20:43:06.222356,3350622,-1638,421,-575,-1254,-126,15,360,400,-60
451,1,2022-09-30T20:43:06.230171,3350633,-1638,421,-575,-1254,-126,15,360,400,-60
452,1,2022-09-30T20:43:06.235868,3350638,-1640,419,-572,-1271,-123,-64,371,385,-67
453,1,2022-09-30T20:43:06.244172,3350645,-1640,419,-572,-1271,-123,-64,371,385,-67
454,1,2022-09-30T20:43:06.252492,3350656,-1643,417,-568,-1267,-175,-139,371,385,-67
455,1,2022-09-30T20:43:06.260703,3350663,-1643,417,-568,-1267,-175,-139,371,385,-67
456,1,2022-09-30T20:43:06.268786,3350671,-1643,417,-568,-1267,-175,-139,371,385,-67
457,1,2022-09-30T20:43:06.277788,3350680,-1642,417,-576,-1272,-244,-194,371,385,-67
458,1,2022-09-30T20:43:06.286631,3350689,-1642,417,-576,-1272,-244,-194,371,385,-67
459,1,2022-09-30T20:43:06.294370,3350694,-1640,418,-577,-1290,-293,-229,371,385,-67
460,1,2022-09-30T20:43:06.303896,3350707,-1640,418,-577,-1290,-293,-229,371,385,-67
461,1,2022-09-30T20:43:06.311278,3350714,-1643,420,-569,-1331,-327,-248,371,385,-67
462,1,2022-09-30T20:43:06.319065,3350721,-1643,420,-569,-1331,-327,-248,371,385,-67
463,1,2022-09-30T20:43:06.328027,3350730,-1643,420,-569,-1331,-327,-248,371,385,-67
464,1,2022-09-30T20:43:06.337343,3350740,-1642,420,-569,-1388,-363,-239,371,385,-67
465,1,2022-09-30T20:43:06.348477,3350750,-1642,420,-569,-1388,-363,-239,371,385,-67
466,1,2022-09-30T20:43:06.356635,3350759,-1642,411,-566,-1463,-418,-211,371,385,-67
467,1,2022-09-30T20:43:06.365744,3350768,-1642,411,-566,-1463,-418,-211,371,385,-67
468,1,2022-09-30T20:43:06.378783,3350781,-1642,405,-563,-1515,-437,-183,369,391,-63
469,1,2022-09-30T20:43:06.387365,3350790,-1642,405,-563,-1515,-437,-183,369,391,-63
470,1,2022-09-30T20:43:06.396927,3350796,-1641,403,-564,-1544,-428,-167,369,391,-63
471,1,2022-09-30T20:43:06.404776,3350807,-1641,403,-564,-1544,-428,-167,369,391,-63
472,1,2022-09-30T20:43:06.412013,3350814,-1656,401,-557,-1540,-442,-150,369,391,-63
473,1,2022-09-30T20:43:06.422423,3350821,-1656,401,-557,-1540,-442,-150,369,391,-63
474,1,2022-09-30T20:43:06.429930,3350833,-1656,401,-557,-1540,-442,-150,369,391,-63
475,1,2022-09-30T20:43:06.435603,3350838,-1631,398,-568,-1542,-537,-100,369,391,-63
476,1,2022-09-30T20:43:06.443575,3350845,-1631,398,-568,-1542,-537,-100,369,391,-63
477,1,2022-09-30T20:43:06.452150,3350855,-1632,394,-567,-1527,-494,-28,369,391,-63
478,1,2022-09-30T20:43:06.461221,3350863,-1632,394,-567,-1527,-494,-28,369,391,-63
479,1,2022-09-30T20:43:06.472579,3350872,-1632,394,-567,-1527,-494,-28,369,391,-63
480,1,2022-09-30T20:43:06.480114,3350883,-1641,398,-560,-1490,-408,23,369,391,-63
481,1,2022-09-30T20:43:06.488611,3350891,-1641,398,-560,-1490,-408,23,369,391,-63
482,1,2022-09-30T20:43:06.497142,3350899,-1643,402,-549,-1438,-386,30,372,394,-58
483,1,2022-09-30T20:43:06.507695,3350910,-1643,402,-549,-1438,-386,30,372,394,-58
484,1,2022-09-30T20:43:06.513770,3350917,-1638,403,-558,-1415,-398,21,372,394,-58
485,1,2022-09-30T20:43:06.524501,3350927,-1638,403,-558,-1415,-398,21,372,394,-58
486,1,2022-09-30T20:43:06.531971,3350934,-1634,402,-561,-1410,-407,13,372,394,-58
487,1,2022-09-30T20:43:06.541031,3350943,-1634,402,-561,-1410,-407,13,372,394,-58
488,1,2022-09-30T20:43:06.549912,3350952,-1634,402,-561,-1410,-407,13,372,394,-58
489,1,2022-09-30T20:43:06.555370,3350959,-1635,412,-555,-1405,-359,7,372,394,-58
490,1,2022-09-30T20:43:06.562911,3350966,-1635,412,-555,-1405,-359,7,372,394,-58
491,1,2022-09-30T20:43:06.571822,3350974,-1635,416,-551,-1406,-311,17,372,394,-58
492,1,2022-09-30T20:43:06.581340,3350984,-1635,416,-551,-1406,-311,17,372,394,-58
493,1,2022-09-30T20:43:06.588810,3350991,-1635,416,-551,-1406,-311,17,372,394,-58
494,1,2022-09-30T20:43:06.595722,3350998,-1635,417,-561,-1410,-280,50,372,394,-58
495,1,2022-09-30T20:43:06.603066,3351006,-1635,417,-561,-1410,-280,50,372,394,-58
496,1,2022-09-30T20:43:06.610561,3351013,-1635,417,-561,-1410,-280,50,372,394,-58
497,1,2022-09-30T20:43:06.617500,3351019,-1637,418,-555,-1433,-248,41,367,391,-63
498,1,2022-09-30T20:43:06.628297,3351030,-1637,418,-555,-1433,-248,41,367,391,-63
499,1,2022-09-30T20:43:06.635658,3351038,-1642,418,-559,-1427,-245,6,367,391,-63
500,1,2022-09-30T20:43:06.644522,3351046,-1642,418,-559,-1427,-245,6,367,391,-63
501,1,2022-09-30T20:43:06.653804,3351056,-1644,419,-566,-1412,-266,-49,367,391,-63
502,1,2022-09-30T20:43:06.662423,3351065,-1644,419,-566,-1412,-266,-49,367,391,-63
503,1,2022-09-30T20:43:06.670272,3351072,-1644,419,-566,-1412,-266,-49,367,391,-63
504,1,2022-09-30T20:43:06.679220,3351081,-1641,421,-563,-1404,-290,-106,367,391,-63
505,1,2022-09-30T20:43:06.688116,3351091,-1641,421,-563,-1404,-290,-106,367,391,-63
506,1,2022-09-30T20:43:06.694473,3351096,-1640,417,-563,-1410,-308,-174,367,391,-63
507,1,2022-09-30T20:43:06.704042,3351107,-1640,417,-563,-1410,-308,-174,367,391,-63
508,1,2022-09-30T20:43:06.710215,3351113,-1640,417,-563,-1410,-308,-174,367,391,-63
509,1,2022-09-30T20:43:06.717340,3351118,-1641,417,-561,-1436,-324,-219,367,391,-63
510,1,2022-09-30T20:43:06.728410,3351131,-1641,417,-561,-1436,-324,-219,367,391,-63
511,1,2022-09-30T20:43:06.733735,3351137,-1642,416,-561,-1465,-351,-221,370,386,-54
512,1,2022-09-30T20:43:06.739375,3351142,-1642,416,-561,-1465,-351,-221,370,386,-54
513,1,2022-09-30T20:43:06.751073,3351154,-1642,416,-561,-1465,-351,-221,370,386,-54
514,1,2022-09-30T20:43:06.756794,3351159,-1643,411,-560,-1492,-378,-188,370,386,-54
515,1,2022-09-30T20:43:06.766071,3351168,-1643,411,-560,-1492,-378,-188,370,386,-54
516,1,2022-09-30T20:43:06.775956,3351179,-1640,407,-562,-1524,-382,-151,370,386,-54
517,1,2022-09-30T20:43:06.783294,3351186,-1640,407,-562,-1524,-382,-151,370,386,-54
518,1,2022-09-30T20:43:06.788837,3351191,-1640,407,-562,-1524,-382,-151,370,386,-54
519,1,2022-09-30T20:43:06.798850,3351201,-1636,403,-554,-1541,-374,-134,370,386,-54
520,1,2022-09-30T20:43:06.809062,3351212,-1636,403,-554,-1541,-374,-134,370,386,-54
521,1,2022-09-30T20:43:06.816267,3351218,-1638,400,-560,-1546,-350,-121,370,386,-54
522,1,2022-09-30T20:43:06.826117,3351229,-1638,400,-560,-1546,-350,-121,370,386,-54
523,1,2022-09-30T20:43:06.834858,3351237,-1638,398,-563,-1515,-314,-101,370,386,-54
524,1,2022-09-30T20:43:06.843201,3351244,-1638,398,-563,-1515,-314,-101,370,386,-54
525,1,2022-09-30T20:43:06.853922,3351257,-1641,398,-562,-1480,-314,-68,370,386,-54
526,1,2022-09-30T20:43:06.861319,3351264,-1641,398,-562,-1480,-314,-68,370,386,-54
527,1,2022-09-30T20:43:06.871498,3351274,-1641,398,-562,-1480,-314,-68,370,386,-54
528,1,2022-09-30T20:43:06.877227,3351280,-1641,400,-559,-1453,-319,-36,373,391,-65
529,1,2022-09-30T20:43:06.887259,3351290,-1641,400,-559,-1453,-319,-36,373,391,-65
530,1,2022-09-30T20:43:06.895496,3351296,-1639,406,-564,-1431,-343,-17,373,391,-65
531,1,2022-09-30T20:43:06.905702,3351308,-1639,406,-564,-1431,-343,-17,373,391,-65
532,1,2022-09-30T20:43:06.912891,3351315,-1642,409,-556,-1420,-358,-22,373,391,-65
533,1,2022-09-30T20:43:06.923292,3351324,-1642,409,-556,-1420,-358,-22,373,391,-65
534,1,2022-09-30T20:43:06.930492,3351333,-1642,409,-556,-1420,-358,-22,373,391,-65
535,1,2022-09-30T20:43:06.936005,3351339,-1636,415,-552,-1443,-373,-19,373,391,-65
536,1,2022-09-30T20:43:06.943109,3351345,-1636,415,-552,-1443,-373,-19,373,391,-65
537,1,2022-09-30T20:43:06.952028,3351355,-1633,419,-555,-1491,-382,-36,373,391,-65
538,1,2022-09-30T20:43:06.959908,3351360,-1633,419,-555,-1491,-382,-36,373,391,-65
539,1,2022-09-30T20:43:06.968246,3351370,-1633,419,-555,-1491,-382,-36,373,391,-65
540,1,2022-09-30T20:43:06.973939,3351376,-1641,415,-552,-1548,-350,-53,373,391,-65
541,1,2022-09-30T20:43:06.981321,3351384,-1641,415,-552,-1548,-350,-53,373,391,-65
542,1,2022-09-30T20:43:06.988631,3351391,-1641,415,-552,-1548,-350,-53,373,391,-65
543,1,2022-09-30T20:43:06.996638,3351399,-1625,410,-555,-1597,-308,-37,369,397,-55
544,1,2022-09-30T20:43:07.006096,3351408,-1625,410,-555,-1597,-308,-37,369,397,-55
545,1,2022-09-30T20:43:07.013227,3351415,-1635,400,-561,-1577,-210,-63,369,397,-55
546,1,2022-09-30T20:43:07.022035,3351424,-1635,400,-561,-1577,-210,-63,369,397,-55
547,1,2022-09-30T20:43:07.029681,3351433,-1635,400,-561,-1577,-210,-63,369,397,-55
548,1,2022-09-30T20:43:07.035670,3351438,-1646,398,-568,-1505,-169,-143,369,397,-55
549,1,2022-09-30T20:43:07.043687,3351446,-1646,398,-568,-1505,-169,-143,369,397,-55
550,1,2022-09-30T20:43:07.055264,3351458,-1647,391,-567,-1434,-230,-198,369,397,-55
551,1,2022-09-30T20:43:07.064087,3351467,-1647,391,-567,-1434,-230,-198,369,397,-55
552,1,2022-09-30T20:43:07.074318,3351477,-1641,395,-569,-1387,-317,-239,369,397,-55
553,1,2022-09-30T20:43:07.082988,3351485,-1641,395,-569,-1387,-317,-239,369,397,-55
554,1,2022-09-30T20:43:07.090327,3351493,-1641,395,-569,-1387,-317,-239,369,397,-55
555,1,2022-09-30T20:43:07.101710,3351504,-1640,403,-572,-1371,-352,-251,369,397,-55
556,1,2022-09-30T20:43:07.108408,3351510,-1640,403,-572,-1371,-352,-251,369,397,-55
557,1,2022-09-30T20:43:07.114562,3351517,-1637,407,-557,-1411,-360,-214,369,393,-69
558,1,2022-09-30T20:43:07.126284,3351529,-1637,407,-557,-1411,-360,-214,369,393,-69
559,1,2022-09-30T20:43:07.135725,3351538,-1641,406,-561,-1495,-366,-146,369,393,-69
560,1,2022-09-30T20:43:07.143906,3351545,-1641,406,-561,-1495,-366,-146,369,393,-69
561,1,2022-09-30T20:43:07.149292,3351553,-1641,406,-561,-1495,-366,-146,369,393,-69
562,1,2022-09-30T20:43:07.155277,3351558,-1640,404,-565,-1580,-377,-89,369,393,-69
563,1,2022-09-30T20:43:07.162603,3351565,-1640,404,-565,-1580,-377,-89,369,393,-69
564,1,2022-09-30T20:43:07.172299,3351574,-1644,401,-564,-1646,-384,-49,369,393,-69
565,1,2022-09-30T20:43:07.182516,3351585,-1644,401,-564,-1646,-384,-49,369,393,-69
566,1,2022-09-30T20:43:07.189875,3351592,-1644,401,-564,-1646,-384,-49,369,393,-69
567,1,2022-09-30T20:43:07.199985,3351602,-1635,395,-565,-1671,-378,4,369,393,-69
568,1,2022-09-30T20:43:07.208351,3351611,-1635,395,-565,-1671,-378,4,369,393,-69
569,1,2022-09-30T20:43:07.220454,3351617,-1650,395,-558,-1632,-354,26,369,393,-69
570,1,2022-09-30T20:43:07.228591,3351630,-1650,395,-558,-1632,-354,26,369,393,-69
571,1,2022-09-30T20:43:07.236394,3351640,-1645,401,-558,-1580,-411,27,370,388,-60
572,1,2022-09-30T20:43:07.245957,3351647,-1645,401,-558,-1580,-411,27,370,388,-60
573,1,2022-09-30T20:43:07.254617,3351657,-1627,403,-556,-1558,-454,54,370,388,-60
574,1,2022-09-30T20:43:07.263829,3351666,-1627,403,-556,-1558,-454,54,370,388,-60
575,1,2022-09-30T20:43:07.273872,3351675,-1636,406,-558,-1520,-370,80,370,388,-60
576,1,2022-09-30T20:43:07.280015,3351683,-1636,406,-558,-1520,-370,80,370,388,-60
577,1,2022-09-30T20:43:07.287154,3351690,-1636,406,-558,-1520,-370,80,370,388,-60
578,1,2022-09-30T20:43:07.295095,3351696,-1641,409,-556,-1473,-313,61,370,388,-60
579,1,2022-09-30T20:43:07.304057,3351707,-1641,409,-556,-1473,-313,61,370,388,-60
580,1,2022-09-30T20:43:07.311461,3351714,-1641,409,-556,-1473,-313,61,370,388,-60
581,1,2022-09-30T20:43:07.318622,3351719,-1642,409,-561,-1456,-316,14,370,388,-60
582,1,2022-09-30T20:43:07.328435,3351732,-1642,409,-561,-1456,-316,14,370,388,-60
583,1,2022-09-30T20:43:07.335284,3351738,-1638,409,-560,-1461,-329,-47,370,388,-60
584,1,2022-09-30T20:43:07.341629,3351744,-1638,409,-560,-1461,-329,-47,370,388,-60
585,1,2022-09-30T20:43:07.353435,3351756,-1638,415,-557,-1470,-327,-84,370,388,-60
586,1,2022-09-30T20:43:07.362481,3351764,-1638,415,-557,-1470,-327,-84,370,388,-60
587,1,2022-09-30T20:43:07.371334,3351772,-1638,415,-557,-1470,-327,-84,370,388,-60
588,1,2022-09-30T20:43:07.381012,3351784,-1636,415,-557,-1492,-333,-68,369,389,-61
589,1,2022-09-30T20:43:07.389667,3351792,-1636,415,-557,-1492,-333,-68,369,389,-61
590,1,2022-09-30T20:43:07.398466,3351801,-1637,419,-552,-1518,-319,-25,369,389,-61
591,1,2022-09-30T20:43:07.409204,3351812,-1637,419,-552,-1518,-319,-25,369,389,-61
592,1,2022-09-30T20:43:07.415142,3351818,-1639,414,-559,-1563,-308,-5,369,389,-61
593,1,2022-09-30T20:43:07.427158,3351830,-1639,414,-559,-1563,-308,-5,369,389,-61
594,1,2022-09-30T20:43:07.436248,3351839,-1641,414,-562,-1598,-300,-46,369,389,-61
595,1,2022-09-30T20:43:07.444430,3351846,-1641,414,-562,-1598,-300,-46,369,389,-61
596,1,2022-09-30T20:43:07.452376,3351855,-1641,404,-563,-1600,-291,-102,369,389,-61
597,1,2022-09-30T20:43:07.459839,3351863,-1641,404,-563,-1600,-291,-102,369,389,-61
598,1,2022-09-30T20:43:07.466671,3351869,-1641,404,-563,-1600,-291,-102,369,389,-61
599,1,2022-09-30T20:43:07.477799,3351880,-1642,400,-567,-1569,-294,-155,369,389,-61
600,1,2022-09-30T20:43:07.486463,3351889,-1642,400,-567,-1569,-294,-155,369,389,-61
601,1,2022-09-30T20:43:07.494451,3351897,-1640,401,-565,-1512,-321,-173,362,388,-62
602,1,2022-09-30T20:43:07.502848,3351906,-1640,401,-565,-1512,-321,-173,362,388,-62
603,1,2022-09-30T20:43:07.509996,3351913,-1640,401,-565,-1512,-321,-173,362,388,-62
604,1,2022-09-30T20:43:07.517153,3351918,-1642,406,-558,-1470,-347,-174,362,388,-62
605,1,2022-09-30T20:43:07.529452,3351931,-1642,406,-558,-1470,-347,-174,362,388,-62
606,1,2022-09-30T20:43:07.536733,3351940,-1641,408,-559,-1449,-379,-150,362,388,-62
607,1,2022-09-30T20:43:07.548316,3351950,-1641,408,-559,-1449,-379,-150,362,388,-62
608,1,2022-09-30T20:43:07.558180,3351961,-1641,406,-559,-1474,-402,-123,362,388,-62
609,1,2022-09-30T20:43:07.567899,3351969,-1641,406,-559,-1474,-402,-123,362,388,-62
610,1,2022-09-30T20:43:07.577192,3351980,-1637,409,-557,-1521,-413,-116,362,388,-62
611,1,2022-09-30T20:43:07.585526,3351989,-1637,409,-557,-1521,-413,-116,362,388,-62
612,1,2022-09-30T20:43:07.595247,3351995,-1637,409,-557,-1521,-413,-116,362,388,-62
613,1,2022-09-30T20:43:07.600836,3352003,-1637,409,-557,-1521,-413,-116,362,388,-62
614,1,2022-09-30T20:43:07.608156,3352010,-1637,409,-557,-1521,-413,-116,362,388,-62
615,1,2022-09-30T20:43:07.614618,3352017,-1635,399,-552,-1599,-386,-98,374,390,-62
616,1,2022-09-30T20:43:07.624691,3352028,-1635,399,-552,-1599,-386,-98,374,390,-62
617,1,2022-09-30T20:43:07.633019,3352036,-1638,392,-560,-1596,-371,-55,374,390,-62
618,1,2022-09-30T20:43:07.639711,3352042,-1638,392,-560,-1596,-371,-55,374,390,-62
619,1,2022-09-30T20:43:07.649269,3352052,-1638,392,-560,-1596,-371,-55,374,390,-62
620,1,2022-09-30T20:43:07.658870,3352061,-1640,391,-565,-1561,-367,-17,374,390,-62
621,1,2022-09-30T20:43:07.669495,3352070,-1640,391,-565,-1561,-367,-17,374,390,-62
622,1,2022-09-30T20:43:07.679906,3352082,-1641,393,-565,-1502,-357,15,374,390,-62
623,1,2022-09-30T20:43:07.689594,3352092,-1641,393,-565,-1502,-357,15,374,390,-62
624,1,2022-09-30T20:43:07.696387,3352099,-1635,393,-562,-1473,-348,18,374,390,-62
625,1,2022-09-30T20:43:07.702162,3352104,-1635,393,-562,-1473,-348,18,374,390,-62
626,1,2022-09-30T20:43:07.709626,3352112,-1635,393,-562,-1473,-348,18,374,390,-62
627,1,2022-09-30T20:43:07.715111,3352118,-1636,396,-558,-1463,-324,7,374,390,-62
628,1,2022-09-30T20:43:07.722177,3352125,-1636,396,-558,-1463,-324,7,374,390,-62
629,1,2022-09-30T20:43:07.731177,3352134,-1636,396,-558,-1463,-324,7,374,390,-62
630,1,2022-09-30T20:43:07.737045,3352139,-1635,404,-558,-1438,-319,-21,367,391,-59
631,1,2022-09-30T20:43:07.744721,3352147,-1635,404,-558,-1438,-319,-21,367,391,-59
632,1,2022-09-30T20:43:07.753868,3352157,-1642,404,-557,-1452,-296,-54,367,391,-59
633,1,2022-09-30T20:43:07.761285,3352164,-1642,404,-557,-1452,-296,-54,367,391,-59
634,1,2022-09-30T20:43:07.769409,3352171,-1642,404,-557,-1452,-296,-54,367,391,-59
635,1,2022-09-30T20:43:07.776749,3352179,-1638,412,-555,-1492,-295,-94,367,391,-59
636,1,2022-09-30T20:43:07.784254,3352187,-1638,412,-555,-1492,-295,-94,367,391,-59
637,1,2022-09-30T20:43:07.789082,3352193,-1638,412,-555,-1492,-295,-94,367,391,-59
638,1,2022-09-30T20:43:07.801375,3352204,-1638,417,-557,-1555,-312,-108,367,391,-59
639,1,2022-09-30T20:43:07.845369,3352248,-1632,404,-560,-1667,-301,-48,367,391,-59
640,1,2022-09-30T20:43:07.856780,3352259,-1638,395,-564,-1649,-237,-31,367,391,-59
641,1,2022-09-30T20:43:07.865770,3352268,-1638,395,-564,-1649,-237,-31,367,391,-59
642,1,2022-09-30T20:43:07.877454,3352281,-1647,392,-560,-1580,-188,-85,370,386,-60
643,1,2022-09-30T20:43:07.887480,3352290,-1647,392,-560,-1580,-188,-85,370,386,-60
644,1,2022-09-30T20:43:07.896296,3352297,-1659,393,-563,-1486,-229,-164,370,386,-60
645,1,2022-09-30T20:43:07.904767,3352307,-1659,393,-563,-1486,-229,-164,370,386,-60
646,1,2022-09-30T20:43:07.911575,3352314,-1659,393,-563,-1486,-229,-164,370,386,-60
647,1,2022-09-30T20:43:07.918201,3352320,-1629,395,-569,-1413,-354,-173,370,386,-60
648,1,2022-09-30T20:43:07.929217,3352332,-1629,395,-569,-1413,-354,-173,370,386,-60
649,1,2022-09-30T20:43:07.935493,3352338,-1661,398,-562,-1358,-323,-241,370,386,-60
650,1,2022-09-30T20:43:07.941553,3352344,-1661,398,-562,-1358,-323,-241,370,386,-60
651,1,2022-09-30T20:43:07.953008,3352355,-1624,408,-557,-1373,-413,-181,370,386,-60
652,1,2022-09-30T20:43:07.961957,3352365,-1624,408,-557,-1373,-413,-181,370,386,-60
653,1,2022-09-30T20:43:07.970923,3352372,-1624,408,-557,-1373,-413,-181,370,386,-60
654,1,2022-09-30T20:43:07.980787,3352383,-1646,406,-568,-1413,-337,-154,370,386,-60
655,1,2022-09-30T20:43:07.988679,3352391,-1646,406,-568,-1413,-337,-154,370,386,-60
656,1,2022-09-30T20:43:07.997698,3352398,-1627,407,-556,-1485,-373,-71,368,384,-58
657,1,2022-09-30T20:43:08.006064,3352409,-1627,407,-556,-1485,-373,-71,368,384,-58
658,1,2022-09-30T20:43:08.013809,3352416,-1635,401,-557,-1540,-302,-57,368,384,-58
659,1,2022-09-30T20:43:08.023246,3352426,-1635,401,-557,-1540,-302,-57,368,384,-58
660,1,2022-09-30T20:43:08.032213,3352434,-1635,401,-557,-1540,-302,-57,368,384,-58
661,1,2022-09-30T20:43:08.038014,3352440,-1636,400,-565,-1544,-249,-95,368,384,-58
662,1,2022-09-30T20:43:08.045569,3352446,-1636,400,-565,-1544,-249,-95,368,384,-58
663,1,2022-09-30T20:43:08.054245,3352457,-1627,393,-564,-1474,-200,-149,368,384,-58
664,1,2022-09-30T20:43:08.061016,3352464,-1627,393,-564,-1474,-200,-149,368,384,-58
665,1,2022-09-30T20:43:08.069325,3352471,-1627,393,-564,-1474,-200,-149,368,384,-58
666,1,2022-09-30T20:43:08.078349,3352481,-1632,391,-570,-1374,-166,-192,368,384,-58
667,1,2022-09-30T20:43:08.086919,3352489,-1632,391,-570,-1374,-166,-192,368,384,-58
668,1,2022-09-30T20:43:08.095088,3352496,-1650,392,-578,-1253,-158,-240,368,384,-58
669,1,2022-09-30T20:43:08.105759,3352508,-1650,392,-578,-1253,-158,-240,368,384,-58
670,1,2022-09-30T20:43:08.113162,3352516,-1638,399,-576,-1155,-222,-184,368,390,-62
671,1,2022-09-30T20:43:08.121961,3352524,-1638,399,-576,-1155,-222,-184,368,390,-62
672,1,2022-09-30T20:43:08.130439,3352534,-1638,399,-576,-1155,-222,-184,368,390,-62
673,1,2022-09-30T20:43:08.136004,3352539,-1638,403,-576,-1080,-250,-122,368,390,-62
674,1,2022-09-30T20:43:08.144908,3352547,-1638,403,-576,-1080,-250,-122,368,390,-62
675,1,2022-09-30T20:43:08.153013,3352556,-1643,409,-571,-1070,-309,-81,368,390,-62
676,1,2022-09-30T20:43:08.158579,3352561,-1643,409,-571,-1070,-309,-81,368,390,-62
677,1,2022-09-30T20:43:08.165683,3352568,-1643,409,-571,-1070,-309,-81,368,390,-62
678,1,2022-09-30T20:43:08.173639,3352577,-1643,412,-572,-1118,-393,-72,368,390,-62
679,1,2022-09-30T20:43:08.181362,3352584,-1643,412,-572,-1118,-393,-72,368,390,-62
680,1,2022-09-30T20:43:08.189325,3352592,-1643,412,-572,-1118,-393,-72,368,390,-62
681,1,2022-09-30T20:43:08.195628,3352598,-1637,409,-572,-1200,-415,-109,368,390,-62
682,1,2022-09-30T20:43:08.205109,3352608,-1637,409,-572,-1200,-415,-109,368,390,-62
683,1,2022-09-30T20:43:08.212310,3352614,-1633,410,-579,-1262,-405,-118,368,390,-62
684,1,2022-09-30T20:43:08.224659,3352627,-1633,410,-579,-1262,-405,-118,368,390,-62
685,1,2022-09-30T20:43:08.234259,3352637,-1635,402,-581,-1280,-387,-83,367,383,-61
686,1,2022-09-30T20:43:08.243790,3352644,-1635,402,-581,-1280,-387,-83,367,383,-61
687,1,2022-09-30T20:43:08.254806,3352657,-1638,392,-577,-1242,-351,-86,367,383,-61
688,1,2022-09-30T20:43:08.260558,3352663,-1638,392,-577,-1242,-351,-86,367,383,-61
689,1,2022-09-30T20:43:08.268617,3352671,-1638,392,-577,-1242,-351,-86,367,383,-61
690,1,2022-09-30T20:43:08.275168,3352678,-1624,382,-586,-1153,-324,-130,367,383,-61
691,1,2022-09-30T20:43:08.282170,3352685,-1624,382,-586,-1153,-324,-130,367,383,-61
692,1,2022-09-30T20:43:08.288020,3352690,-1624,382,-586,-1153,-324,-130,367,383,-61
693,1,2022-09-30T20:43:08.294422,3352696,-1624,379,-589,-1010,-244,-231,367,383,-61
694,1,2022-09-30T20:43:08.304911,3352708,-1624,379,-589,-1010,-244,-231,367,383,-61
695,1,2022-09-30T20:43:08.311844,3352715,-1634,373,-595,-824,-161,-333,367,383,-61
696,1,2022-09-30T20:43:08.319839,3352722,-1634,373,-595,-824,-161,-333,367,383,-61
697,1,2022-09-30T20:43:08.327303,3352730,-1634,373,-595,-824,-161,-333,367,383,-61
698,1,2022-09-30T20:43:08.333302,3352736,-1636,369,-596,-642,-128,-394,367,383,-61
699,1,2022-09-30T20:43:08.340351,3352743,-1636,369,-596,-642,-128,-394,367,383,-61
700,1,2022-09-30T20:43:08.351047,3352754,-1636,369,-596,-642,-128,-394,367,383,-61
701,1,2022-09-30T20:43:08.358468,3352761,-1630,366,-591,-485,-92,-427,367,383,-61
702,1,2022-09-30T20:43:08.366851,3352769,-1630,366,-591,-485,-92,-427,367,383,-61
703,1,2022-09-30T20:43:08.375854,3352778,-1633,368,-595,-349,-72,-462,376,380,-56
704,1,2022-09-30T20:43:08.382562,3352785,-1633,368,-595,-349,-72,-462,376,380,-56
705,1,2022-09-30T20:43:08.390039,3352793,-1633,368,-595,-349,-72,-462,376,380,-56
706,1,2022-09-30T20:43:08.399420,3352802,-1644,369,-593,-253,-72,-467,376,380,-56
707,1,2022-09-30T20:43:08.409302,3352812,-1644,369,-593,-253,-72,-467,376,380,-56
708,1,2022-09-30T20:43:08.414927,3352817,-1638,370,-595,-172,-119,-428,376,380,-56
709,1,2022-09-30T20:43:08.424176,3352826,-1638,370,-595,-172,-119,-428,376,380,-56
710,1,2022-09-30T20:43:08.431736,3352835,-1638,370,-595,-172,-119,-428,376,380,-56
711,1,2022-09-30T20:43:08.437327,3352840,-1631,373,-591,-120,-179,-384,376,380,-56
712,1,2022-09-30T20:43:08.447258,3352848,-1631,373,-591,-120,-179,-384,376,380,-56
713,1,2022-09-30T20:43:08.455021,3352858,-1640,369,-586,-90,-231,-374,376,380,-56
714,1,2022-09-30T20:43:08.462692,3352865,-1640,369,-586,-90,-231,-374,376,380,-56
715,1,2022-09-30T20:43:08.472180,3352875,-1640,369,-586,-90,-231,-374,376,380,-56
716,1,2022-09-30T20:43:08.480746,3352884,-1642,362,-586,-70,-311,-371,376,380,-56
717,1,2022-09-30T20:43:08.490099,3352893,-1642,362,-586,-70,-311,-371,376,380,-56
718,1,2022-09-30T20:43:08.498345,3352899,-1646,361,-575,-54,-401,-376,378,388,-54
719,1,2022-09-30T20:43:08.505826,3352908,-1646,361,-575,-54,-401,-376,378,388,-54
720,1,2022-09-30T20:43:08.513177,3352915,-1632,349,-576,-50,-466,-336,378,388,-54
721,1,2022-09-30T20:43:08.524220,3352924,-1632,349,-576,-50,-466,-336,378,388,-54
722,1,2022-09-30T20:43:08.533293,3352936,-1629,338,-569,63,-483,-313,378,388,-54
723,1,2022-09-30T20:43:08.542080,3352944,-1629,338,-569,63,-483,-313,378,388,-54
724,1,2022-09-30T20:43:08.550327,3352953,-1629,338,-569,63,-483,-313,378,388,-54
725,1,2022-09-30T20:43:08.556215,3352958,-1628,329,-567,233,-461,-270,378,388,-54
726,1,2022-09-30T20:43:08.563600,3352967,-1628,329,-567,233,-461,-270,378,388,-54
727,1,2022-09-30T20:43:08.571162,3352974,-1628,329,-567,233,-461,-270,378,388,-54
728,1,2022-09-30T20:43:08.580143,3352983,-1636,320,-567,461,-414,-226,378,388,-54
729,1,2022-09-30T20:43:08.589407,3352991,-1636,320,-567,461,-414,-226,378,388,-54
730,1,2022-09-30T20:43:08.597524,3352998,-1632,318,-560,722,-408,-171,378,388,-54
731,1,2022-09-30T20:43:08.604729,3353008,-1632,318,-560,722,-408,-171,378,388,-54
732,1,2022-09-30T20:43:08.611928,3353015,-1632,318,-560,722,-408,-171,378,388,-54
733,1,2022-09-30T20:43:08.617508,3353020,-1630,326,-550,996,-374,-131,366,388,-50
734,1,2022-09-30T20:43:08.628622,3353031,-1630,326,-550,996,-374,-131,366,388,-50
735,1,2022-09-30T20:43:08.635897,3353038,-1622,331,-541,1245,-340,-83,366,388,-50
736,1,2022-09-30T20:43:08.645356,3353047,-1622,331,-541,1245,-340,-83,366,388,-50
737,1,2022-09-30T20:43:08.656027,3353059,-1622,339,-540,1446,-283,-56,366,388,-50
738,1,2022-09-30T20:43:08.663024,3353066,-1622,339,-540,1446,-283,-56,366,388,-50
739,1,2022-09-30T20:43:08.672334,3353072,-1622,339,-540,1446,-283,-56,366,388,-50
740,1,2022-09-30T20:43:08.680921,3353083,-1622,342,-541,1625,-175,3,366,388,-50
741,1,2022-09-30T20:43:08.689786,3353093,-1622,342,-541,1625,-175,3,366,388,-50
742,1,2022-09-30T20:43:08.699752,3353103,-1613,336,-550,1818,-19,76,366,388,-50
743,1,2022-09-30T20:43:08.708592,3353111,-1613,336,-550,1818,-19,76,366,388,-50
744,1,2022-09-30T20:43:08.714607,3353117,-1615,331,-551,2061,181,106,366,388,-50
745,1,2022-09-30T20:43:08.724851,3353127,-1615,331,-551,2061,181,106,366,388,-50
746,1,2022-09-30T20:43:08.731745,3353135,-1615,331,-551,2061,181,106,366,388,-50
747,1,2022-09-30T20:43:08.737980,3353141,-1625,328,-545,2340,331,57,371,383,-43
748,1,2022-09-30T20:43:08.746249,3353146,-1625,328,-545,2340,331,57,371,383,-43
749,1,2022-09-30T20:43:08.755622,3353158,-1628,332,-549,2648,388,8,371,383,-43
750,1,2022-09-30T20:43:08.762229,3353165,-1628,332,-549,2648,388,8,371,383,-43
751,1,2022-09-30T20:43:08.772800,3353175,-1628,332,-549,2648,388,8,371,383,-43
752,1,2022-09-30T20:43:08.779003,3353181,-1627,332,-561,2938,420,-44,371,383,-43
753,1,2022-09-30T20:43:08.786280,3353189,-1627,332,-561,2938,420,-44,371,383,-43
754,1,2022-09-30T20:43:08.794503,3353196,-1626,342,-559,3199,450,-92,371,383,-43
755,1,2022-09-30T20:43:08.803283,3353205,-1626,342,-559,3199,450,-92,371,383,-43
756,1,2022-09-30T20:43:08.812011,3353214,-1626,342,-559,3199,450,-92,371,383,-43
757,1,2022-09-30T20:43:08.818484,3353221,-1626,348,-560,3406,493,-103,371,383,-43
758,1,2022-09-30T20:43:08.825555,3353229,-1626,348,-560,3406,493,-103,371,383,-43
759,1,2022-09-30T20:43:08.832302,3353235,-1631,352,-561,3579,522,-70,371,383,-43
760,1,2022-09-30T20:43:08.841039,3353244,-1631,352,-561,3579,522,-70,371,383,-43
761,1,2022-09-30T20:43:08.848200,3353251,-1631,352,-561,3579,522,-70,371,383,-43
762,1,2022-09-30T20:43:08.854223,3353256,-1630,351,-561,3708,544,-16,371,383,-43
763,1,2022-09-30T20:43:08.862687,3353266,-1630,351,-561,3708,544,-16,371,383,-43
764,1,2022-09-30T20:43:08.871158,3353273,-1630,351,-561,3708,544,-16,371,383,-43
765,1,2022-09-30T20:43:08.877644,3353280,-1627,353,-558,3835,589,6,375,387,-33
766,1,2022-09-30T20:43:08.887214,3353290,-1627,353,-558,3835,589,6,375,387,-33
767,1,2022-09-30T20:43:08.898214,3353297,-1624,347,-567,3972,632,13,375,387,-33
768,1,2022-09-30T20:43:08.906615,3353310,-1624,347,-567,3972,632,13,375,387,-33
769,1,2022-09-30T20:43:08.913955,3353317,-1637,340,-577,4139,695,-24,375,387,-33
770,1,2022-09-30T20:43:08.920614,3353322,-1637,340,-577,4139,695,-24,375,387,-33
771,1,2022-09-30T20:43:08.930098,3353333,-1637,340,-577,4139,695,-24,375,387,-33
772,1,2022-09-30T20:43:08.935970,3353338,-1635,345,-576,4337,689,-20,375,387,-33
773,1,2022-09-30T20:43:08.944667,3353346,-1635,345,-576,4337,689,-20,375,387,-33
774,1,2022-09-30T20:43:08.954742,3353357,-1622,347,-580,4534,699,40,375,387,-33
775,1,2022-09-30T20:43:08.960595,3353363,-1622,347,-580,4534,699,40,375,387,-33
776,1,2022-09-30T20:43:08.969233,3353370,-1622,347,-580,4534,699,40,375,387,-33
777,1,2022-09-30T20:43:08.980199,3353382,-1627,349,-586,4769,797,96,375,387,-33
778,1,2022-09-30T20:43:08.989797,3353393,-1627,349,-586,4769,797,96,375,387,-33
779,1,2022-09-30T20:43:08.996295,3353400,-1636,351,-585,4992,852,122,374,390,-28
780,1,2022-09-30T20:43:09.001898,3353405,-1636,351,-585,4992,852,122,374,390,-28
781,1,2022-09-30T20:43:09.008918,3353412,-1636,351,-585,4992,852,122,374,390,-28
782,1,2022-09-30T20:43:09.014474,3353417,-1643,351,-590,5190,858,104,374,390,-28
783,1,2022-09-30T20:43:09.021296,3353424,-1643,351,-590,5190,858,104,374,390,-28
784,1,2022-09-30T20:43:09.029726,3353433,-1643,351,-590,5190,858,104,374,390,-28
785,1,2022-09-30T20:43:09.035460,3353438,-1635,351,-597,5374,850,64,374,390,-28
786,1,2022-09-30T20:43:09.043742,3353445,-1635,351,-597,5374,850,64,374,390,-28
787,1,2022-09-30T20:43:09.053566,3353456,-1637,357,-596,5540,853,51,374,390,-28
788,1,2022-09-30T20:43:09.060478,3353463,-1637,357,-596,5540,853,51,374,390,-28
789,1,2022-09-30T20:43:09.068221,3353470,-1637,357,-596,5540,853,51,374,390,-28
790,1,2022-09-30T20:43:09.074853,3353478,-1631,363,-599,5695,866,98,374,390,-28
791,1,2022-09-30T20:43:09.081816,3353485,-1631,363,-599,5695,866,98,374,390,-28
792,1,2022-09-30T20:43:09.089231,3353492,-1631,363,-599,5695,866,98,374,390,-28
793,1,2022-09-30T20:43:09.096575,3353497,-1634,369,-602,5836,892,181,374,390,-28
794,1,2022-09-30T20:43:09.105314,3353508,-1634,369,-602,5836,892,181,374,390,-28
795,1,2022-09-30T20:43:09.112727,3353516,-1635,372,-593,5955,890,267,374,390,-28
796,1,2022-09-30T20:43:09.124742,3353528,-1635,372,-593,5955,890,267,360,378,-10
797,1,2022-09-30T20:43:09.132444,3353535,-1637,375,-609,6057,885,311,360,378,-10
798,1,2022-09-30T20:43:09.139905,3353542,-1637,375,-609,6057,885,311,360,378,-10
799,1,2022-09-30T20:43:09.149786,3353552,-1637,375,-609,6057,885,311,360,378,-10
800,1,2022-09-30T20:43:09.158338,3353561,-1635,376,-608,6159,885,301,360,378,-10
801,1,2022-09-30T20:43:09.165605,3353568,-1635,376,-608,6159,885,301,360,378,-10
802,1,2022-09-30T20:43:09.175505,3353578,-1634,380,-610,6272,891,280,360,378,-10
803,1,2022-09-30T20:43:09.182566,3353585,-1634,380,-610,6272,891,280,360,378,-10
804,1,2022-09-30T20:43:09.188544,3353591,-1634,380,-610,6272,891,280,360,378,-10
805,1,2022-09-30T20:43:09.196412,3353596,-1640,384,-617,6416,899,254,360,378,-10
806,1,2022-09-30T20:43:09.205393,3353608,-1640,384,-617,6416,899,254,360,378,-10
807,1,2022-09-30T20:43:09.212961,3353616,-1642,391,-611,6555,883,241,360,378,-10
808,1,2022-09-30T20:43:09.228811,3353631,-1642,391,-611,6555,883,241,360,378,-10
809,1,2022-09-30T20:43:09.235768,3353638,-1642,394,-603,6675,850,222,356,396,4
810,1,2022-09-30T20:43:09.243376,3353646,-1642,394,-603,6675,850,222,356,396,4
811,1,2022-09-30T20:43:09.255392,3353657,-1639,400,-605,6782,832,212,356,396,4
812,1,2022-09-30T20:43:09.264159,3353667,-1639,400,-605,6782,832,212,356,396,4
813,1,2022-09-30T20:43:09.275931,3353678,-1639,408,-608,6877,821,201,356,396,4
814,1,2022-09-30T20:43:09.284004,3353687,-1639,408,-608,6877,821,201,356,396,4
815,1,2022-09-30T20:43:09.292461,3353694,-1639,408,-608,6877,821,201,356,396,4
816,1,2022-09-30T20:43:09.303302,3353706,-1639,412,-606,6959,810,201,356,396,4
817,1,2022-09-30T20:43:09.312039,3353714,-1639,412,-606,6959,810,201,356,396,4
818,1,2022-09-30T20:43:09.320791,3353723,-1639,412,-606,6959,810,201,356,396,4
819,1,2022-09-30T20:43:09.329893,3353733,-1639,412,-606,6959,810,201,356,396,4
820,1,2022-09-30T20:43:09.337723,3353741,-1641,420,-606,7075,777,194,356,396,4
821,1,2022-09-30T20:43:09.344455,3353746,-1641,420,-606,7075,777,194,356,396,4
822,1,2022-09-30T20:43:09.353509,3353756,-1638,421,-602,7134,765,202,356,396,4
823,1,2022-09-30T20:43:09.361946,3353764,-1638,421,-602,7134,765,202,356,396,4
824,1,2022-09-30T20:43:09.373280,3353776,-1647,422,-595,7214,770,205,341,387,21
825,1,2022-09-30T20:43:09.382719,3353786,-1647,422,-595,7214,770,205,341,387,21
826,1,2022-09-30T20:43:09.389671,3353793,-1647,422,-595,7214,770,205,341,387,21
827,1,2022-09-30T20:43:09.396723,3353798,-1649,423,-600,7302,776,205,341,387,21
828,1,2022-09-30T20:43:09.402445,3353805,-1649,423,-600,7302,776,205,341,387,21
829,1,2022-09-30T20:43:09.409765,3353812,-1649,423,-600,7302,776,205,341,387,21
830,1,2022-09-30T20:43:09.417411,3353819,-1648,427,-603,7407,747,206,341,387,21
831,1,2022-09-30T20:43:09.426230,3353829,-1648,427,-603,7407,747,206,341,387,21
832,1,2022-09-30T20:43:09.433550,3353836,-1644,430,-594,7513,699,207,341,387,21
833,1,2022-09-30T20:43:09.443551,3353845,-1644,430,-594,7513,699,207,341,387,21
834,1,2022-09-30T20:43:09.454081,3353857,-1645,436,-594,7610,675,192,341,387,21
835,1,2022-09-30T20:43:09.461172,3353864,-1645,436,-594,7610,675,192,341,387,21
836,1,2022-09-30T20:43:09.469968,3353872,-1645,436,-594,7610,675,192,341,387,21
837,1,2022-09-30T20:43:09.481360,3353884,-1644,443,-585,7713,688,162,341,387,21
838,1,2022-09-30T20:43:09.489571,3353892,-1644,443,-585,7713,688,162,341,387,21
839,1,2022-09-30T20:43:09.497363,3353897,-1649,451,-577,7772,688,141,326,398,38
840,1,2022-09-30T20:43:09.505839,3353909,-1649,451,-577,7772,688,141,326,398,38
841,1,2022-09-30T20:43:09.512987,3353916,-1645,454,-571,7800,669,154,326,398,38
842,1,2022-09-30T20:43:09.522232,3353923,-1645,454,-571,7800,669,154,326,398,38
843,1,2022-09-30T20:43:09.529147,3353932,-1645,454,-571,7800,669,154,326,398,38
844,1,2022-09-30T20:43:09.535555,3353938,-1650,458,-562,7829,688,151,326,398,38
845,1,2022-09-30T20:43:09.544781,3353946,-1650,458,-562,7829,688,151,326,398,38
846,1,2022-09-30T20:43:09.556506,3353959,-1634,453,-579,7849,729,140,326,398,38
847,1,2022-09-30T20:43:09.562778,3353965,-1634,453,-579,7849,729,140,326,398,38
848,1,2022-09-30T20:43:09.569896,3353972,-1634,453,-579,7849,729,140,326,398,38
849,1,2022-09-30T20:43:09.576543,3353978,-1642,452,-566,7941,822,80,326,398,38
850,1,2022-09-30T20:43:09.583666,3353987,-1642,452,-566,7941,822,80,326,398,38
851,1,2022-09-30T20:43:09.590469,3353993,-1642,452,-566,7941,822,80,326,398,38
852,1,2022-09-30T20:43:09.599490,3354002,-1640,448,-564,8046,841,26,326,398,38
853,1,2022-09-30T20:43:09.607944,3354011,-1640,448,-564,8046,841,26,326,398,38
854,1,2022-09-30T20:43:09.614812,3354017,-1638,450,-563,8166,848,-44,301,395,55
855,1,2022-09-30T20:43:09.626697,3354030,-1638,450,-563,8166,848,-44,301,395,55
856,1,2022-09-30T20:43:09.633913,3354037,-1639,446,-566,8305,871,-95,301,395,55
857,1,2022-09-30T20:43:09.639833,3354043,-1639,446,-566,8305,871,-95,301,395,55
858,1,2022-09-30T20:43:09.646242,3354049,-1639,446,-566,8305,871,-95,301,395,55
859,1,2022-09-30T20:43:09.653884,3354057,-1638,449,-559,8433,922,-151,301,395,55
860,1,2022-09-30T20:43:09.661114,3354063,-1638,449,-559,8433,922,-151,301,395,55
861,1,2022-09-30T20:43:09.669404,3354072,-1638,449,-559,8433,922,-151,301,395,55
862,1,2022-09-30T20:43:09.679305,3354082,-1640,454,-553,8516,987,-192,301,395,55
863,1,2022-09-30T20:43:09.686316,3354089,-1640,454,-553,8516,987,-192,301,395,55
864,1,2022-09-30T20:43:09.694009,3354096,-1638,456,-567,8575,1036,-199,301,395,55
865,1,2022-09-30T20:43:09.703005,3354105,-1638,456,-567,8575,1036,-199,301,395,55
866,1,2022-09-30T20:43:09.710234,3354114,-1638,456,-567,8575,1036,-199,301,395,55
867,1,2022-09-30T20:43:09.720532,3354121,-1634,451,-568,8609,1070,-193,301,395,55
868,1,2022-09-30T20:43:09.729369,3354132,-1634,451,-568,8609,1070,-193,301,395,55
869,1,2022-09-30T20:43:09.737549,3354140,-1650,448,-564,8629,1135,-227,290,404,62
870,1,2022-09-30T20:43:09.744208,3354146,-1650,448,-564,8629,1135,-227,290,404,62
871,1,2022-09-30T20:43:09.754105,3354157,-1637,442,-571,8675,1144,-252,290,404,62
872,1,2022-09-30T20:43:09.762689,3354166,-1637,442,-571,8675,1144,-252,290,404,62
873,1,2022-09-30T20:43:09.770358,3354172,-1637,442,-571,8675,1144,-252,290,404,62
874,1,2022-09-30T20:43:09.781599,3354184,-1655,441,-569,8700,1162,-330,290,404,62
875,1,2022-09-30T20:43:09.789571,3354192,-1655,441,-569,8700,1162,-330,290,404,62
876,1,2022-09-30T20:43:09.797056,3354198,-1651,439,-570,8719,1089,-355,290,404,62
877,1,2022-09-30T20:43:09.805379,3354208,-1651,439,-570,8719,1089,-355,290,404,62
878,1,2022-09-30T20:43:09.812279,3354215,-1651,439,-570,8719,1089,-355,290,404,62
879,1,2022-09-30T20:43:09.818937,3354221,-1640,433,-578,8705,1038,-305,290,404,62
880,1,2022-09-30T20:43:09.830045,3354232,-1640,433,-578,8705,1038,-305,290,404,62
881,1,2022-09-30T20:43:09.836907,3354240,-1654,433,-569,8685,1047,-249,290,404,62
882,1,2022-09-30T20:43:09.844789,3354247,-1654,433,-569,8685,1047,-249,290,404,62
883,1,2022-09-30T20:43:09.853156,3354256,-1650,431,-568,8637,999,-219,264,402,64
884,1,2022-09-30T20:43:09.858531,3354261,-1650,431,-568,8637,999,-219,264,402,64
885,1,2022-09-30T20:43:09.863656,3354266,-1650,431,-568,8637,999,-219,264,402,64
886,1,2022-09-30T20:43:09.874295,3354276,-1645,428,-559,8577,907,-219,264,402,64
887,1,2022-09-30T20:43:09.882351,3354284,-1645,428,-559,8577,907,-219,264,402,64
888,1,2022-09-30T20:43:09.889745,3354293,-1645,428,-559,8577,907,-219,264,402,64
889,1,2022-09-30T20:43:09.900437,3354303,-1638,424,-561,8489,812,-264,264,402,64
890,1,2022-09-30T20:43:09.909516,3354312,-1638,424,-561,8489,812,-264,264,402,64
891,1,2022-09-30T20:43:09.915305,3354318,-1636,424,-553,8402,780,-301,264,402,64
892,1,2022-09-30T20:43:09.926305,3354329,-1636,424,-553,8402,780,-301,264,402,64
893,1,2022-09-30T20:43:09.934237,3354337,-1632,421,-540,8322,752,-291,264,402,64
894,1,2022-09-30T20:43:09.939787,3354343,-1632,421,-540,8322,752,-291,264,402,64
895,1,2022-09-30T20:43:09.946261,3354349,-1632,421,-540,8322,752,-291,264,402,64
896,1,2022-09-30T20:43:09.956085,3354359,-1683,419,-535,8244,766,-294,264,402,64
897,1,2022-09-30T20:43:09.962968,3354365,-1683,419,-535,8244,766,-294,264,402,64
898,1,2022-09-30T20:43:09.969642,3354372,-1683,419,-535,8244,766,-294,264,402,64
899,1,2022-09-30T20:43:09.978732,3354382,-1683,419,-535,8244,766,-294,264,402,64
900,1,2022-09-30T20:43:09.984610,3354388,-1683,419,-535,8244,766,-294,264,402,64
901,1,2022-09-30T20:43:09.992506,3354395,-1683,419,-535,8244,766,-294,264,402,64
902,1,2022-09-30T20:43:09.998645,3354401,-1645,406,-508,8012,535,-292,241,409,73
903,1,2022-09-30T20:43:10.005801,3354408,-1645,406,-508,8012,535,-292,241,409,73
904,1,2022-09-30T20:43:10.013270,3354416,-1643,402,-504,7927,480,-241,241,409,73
905,1,2022-09-30T20:43:10.022746,3354426,-1643,402,-504,7927,480,-241,241,409,73
906,1,2022-09-30T20:43:10.032065,3354435,-1643,402,-504,7927,480,-241,241,409,73
907,1,2022-09-30T20:43:10.038836,3354441,-1630,387,-505,7946,425,-81,241,409,73
908,1,2022-09-30T20:43:10.049766,3354452,-1630,387,-505,7946,425,-81,241,409,73
909,1,2022-09-30T20:43:10.058684,3354462,-1650,391,-494,8069,546,123,241,409,73
910,1,2022-09-30T20:43:10.065503,3354468,-1650,391,-494,8069,546,123,241,409,73
911,1,2022-09-30T20:43:10.074264,3354476,-1644,406,-486,8212,649,320,241,409,73
912,1,2022-09-30T20:43:10.083844,3354487,-1644,406,-486,8212,649,320,241,409,73
913,1,2022-09-30T20:43:10.089871,3354492,-1644,406,-486,8212,649,320,241,409,73
914,1,2022-09-30T20:43:10.097866,3354499,-1637,432,-488,8361,760,562,241,409,73
915,1,2022-09-30T20:43:10.106665,3354510,-1637,432,-488,8361,760,562,241,409,73
916,1,2022-09-30T20:43:10.113977,3354517,-1628,450,-485,8471,929,812,226,412,68
917,1,2022-09-30T20:43:10.125656,3354525,-1628,450,-485,8471,929,812,226,412,68
918,1,2022-09-30T20:43:10.134253,3354537,-1608,475,-488,8575,1193,978,226,412,68
919,1,2022-09-30T20:43:10.141682,3354545,-1608,475,-488,8575,1193,978,226,412,68
920,1,2022-09-30T20:43:10.147814,3354551,-1608,475,-488,8575,1193,978,226,412,68
921,1,2022-09-30T20:43:10.153628,3354557,-1601,499,-503,8685,1552,1052,226,412,68
922,1,2022-09-30T20:43:10.163353,3354566,-1601,499,-503,8685,1552,1052,226,412,68
923,1,2022-09-30T20:43:10.170042,3354572,-1601,499,-503,8685,1552,1052,226,412,68
924,1,2022-09-30T20:43:10.177575,3354580,-1595,515,-521,8808,1939,1065,226,412,68
925,1,2022-09-30T20:43:10.184754,3354588,-1595,515,-521,8808,1939,1065,226,412,68
926,1,2022-09-30T20:43:10.192678,3354595,-1595,515,-521,8808,1939,1065,226,412,68
927,1,2022-09-30T20:43:10.201538,3354603,-1601,530,-537,8968,2303,990,226,412,68
928,1,2022-09-30T20:43:10.209503,3354612,-1601,530,-537,8968,2303,990,226,412,68
929,1,2022-09-30T20:43:10.220321,3354621,-1608,543,-566,9144,2617,853,226,412,68
930,1,2022-09-30T20:43:10.229970,3354633,-1608,543,-566,9144,2617,853,226,412,68
931,1,2022-09-30T20:43:10.237535,3354640,-1607,542,-586,9316,2890,640,204,418,64
932,1,2022-09-30T20:43:10.245599,3354647,-1607,542,-586,9316,2890,640,204,418,64
933,1,2022-09-30T20:43:10.253506,3354656,-1613,541,-618,9512,3161,367,204,418,64
934,1,2022-09-30T20:43:10.259272,3354662,-1613,541,-618,9512,3161,367,204,418,64
935,1,2022-09-30T20:43:10.265490,3354669,-1613,541,-618,9512,3161,367,204,418,64
936,1,2022-09-30T20:43:10.275833,3354679,-1616,539,-643,9702,3390,85,204,418,64
937,1,2022-09-30T20:43:10.285310,3354688,-1616,539,-643,9702,3390,85,204,418,64
938,1,2022-09-30T20:43:10.292475,3354695,-1616,539,-643,9702,3390,85,204,418,64
939,1,2022-09-30T20:43:10.303533,3354706,-1644,542,-665,9835,3581,-223,204,418,64
940,1,2022-09-30T20:43:10.312082,3354715,-1644,542,-665,9835,3581,-223,204,418,64
941,1,2022-09-30T20:43:10.319456,3354720,-1662,542,-682,9881,3626,-506,204,418,64
942,1,2022-09-30T20:43:10.328818,3354731,-1662,542,-682,9881,3626,-506,204,418,64
943,1,2022-09-30T20:43:10.337996,3354741,-1669,540,-703,9809,3534,-730,204,418,64
944,1,2022-09-30T20:43:10.345034,3354747,-1669,540,-703,9809,3534,-730,204,418,64
945,1,2022-09-30T20:43:10.354344,3354758,-1670,530,-702,9627,3350,-915,175,419,41
946,1,2022-09-30T20:43:10.361635,3354764,-1670,530,-702,9627,3350,-915,175,419,41
947,1,2022-09-30T20:43:10.369682,3354772,-1670,530,-702,9627,3350,-915,175,419,41
948,1,2022-09-30T20:43:10.377996,3354781,-1686,519,-715,9323,3131,-1060,175,419,41
949,1,2022-09-30T20:43:10.385699,3354788,-1686,519,-715,9323,3131,-1060,175,419,41
950,1,2022-09-30T20:43:10.392944,3354796,-1686,519,-715,9323,3131,-1060,175,419,41
951,1,2022-09-30T20:43:10.402521,3354806,-1691,505,-726,8919,2847,-1138,175,419,41
952,1,2022-09-30T20:43:10.411019,3354814,-1691,505,-726,8919,2847,-1138,175,419,41
953,1,2022-09-30T20:43:10.417579,3354820,-1683,492,-730,8429,2535,-1151,175,419,41
954,1,2022-09-30T20:43:10.427405,3354830,-1683,492,-730,8429,2535,-1151,175,419,41
955,1,2022-09-30T20:43:10.434927,3354838,-1703,484,-727,7925,2192,-1155,175,419,41
956,1,2022-09-30T20:43:10.443832,3354846,-1703,484,-727,7925,2192,-1155,175,419,41
957,1,2022-09-30T20:43:10.453301,3354856,-1712,477,-720,7347,1687,-1076,175,419,41
958,1,2022-09-30T20:43:10.460725,3354863,-1712,477,-720,7347,1687,-1076,175,419,41
959,1,2022-09-30T20:43:10.466337,3354869,-1712,477,-720,7347,1687,-1076,175,419,41
960,1,2022-09-30T20:43:10.476908,3354878,-1708,469,-704,6741,1101,-963,175,419,41
961,1,2022-09-30T20:43:10.484569,3354888,-1708,469,-704,6741,1101,-963,175,419,41
962,1,2022-09-30T20:43:10.492888,3354895,-1708,469,-704,6741,1101,-963,175,419,41
963,1,2022-09-30T20:43:10.503185,3354906,-1694,459,-686,6097,559,-804,166,428,28
964,1,2022-09-30T20:43:10.511579,3354914,-1694,459,-686,6097,559,-804,166,428,28
965,1,2022-09-30T20:43:10.520277,3354920,-1674,456,-672,5485,147,-646,166,428,28
966,1,2022-09-30T20:43:10.528583,3354932,-1674,456,-672,5485,147,-646,166,428,28
967,1,2022-09-30T20:43:10.536367,3354939,-1668,449,-661,4911,-113,-499,166,428,28
968,1,2022-09-30T20:43:10.544687,3354946,-1668,449,-661,4911,-113,-499,166,428,28
969,1,2022-09-30T20:43:10.553911,3354957,-1667,436,-647,4416,-314,-328,166,428,28
970,1,2022-09-30T20:43:10.563756,3354967,-1667,436,-647,4416,-314,-328,166,428,28
971,1,2022-09-30T20:43:10.571473,3354974,-1667,436,-647,4416,-314,-328,166,428,28
972,1,2022-09-30T20:43:10.580588,3354984,-1658,432,-639,4032,-485,-184,166,428,28
973,1,2022-09-30T20:43:10.587891,3354991,-1658,432,-639,4032,-485,-184,166,428,28
974,1,2022-09-30T20:43:10.596096,3354997,-1646,420,-624,3728,-598,-75,166,428,28
975,1,2022-09-30T20:43:10.604006,3355006,-1646,420,-624,3728,-598,-75,166,428,28
976,1,2022-09-30T20:43:10.611445,3355015,-1646,420,-624,3728,-598,-75,166,428,28
977,1,2022-09-30T20:43:10.617851,3355020,-1645,415,-606,3562,-674,-49,159,423,19
978,1,2022-09-30T20:43:10.624841,3355028,-1645,415,-606,3562,-674,-49,159,423,19
979,1,2022-09-30T20:43:10.632933,3355036,-1656,418,-596,3453,-702,-69,159,423,19
980,1,2022-09-30T20:43:10.640630,3355043,-1656,418,-596,3453,-702,-69,159,423,19
981,1,2022-09-30T20:43:10.648595,3355051,-1656,418,-596,3453,-702,-69,159,423,19
982,1,2022-09-30T20:43:10.656860,3355060,-1639,428,-581,3340,-797,-33,159,423,19
983,1,2022-09-30T20:43:10.662575,3355065,-1639,428,-581,3340,-797,-33,159,423,19
984,1,2022-09-30T20:43:10.670850,3355072,-1639,428,-581,3340,-797,-33,159,423,19
985,1,2022-09-30T20:43:10.679285,3355082,-1628,427,-577,3210,-817,12,159,423,19
986,1,2022-09-30T20:43:10.686084,3355089,-1628,427,-577,3210,-817,12,159,423,19
987,1,2022-09-30T20:43:10.694445,3355096,-1633,425,-562,3072,-757,21,159,423,19
988,1,2022-09-30T20:43:10.705372,3355108,-1633,425,-562,3072,-757,21,159,423,19
989,1,2022-09-30T20:43:10.712789,3355116,-1633,425,-562,3072,-757,21,159,423,19
990,1,2022-09-30T20:43:10.720566,3355121,-1633,429,-550,2948,-717,-9,159,423,19
991,1,2022-09-30T20:43:10.729528,3355132,-1633,429,-550,2948,-717,-9,159,423,19
992,1,2022-09-30T20:43:10.736819,3355140,-1665,425,-535,2780,-654,-158,149,421,11
993,1,2022-09-30T20:43:10.744891,3355147,-1665,425,-535,2780,-654,-158,149,421,11
994,1,2022-09-30T20:43:10.755499,3355158,-1627,434,-531,2590,-715,-227,149,421,11
995,1,2022-09-30T20:43:10.761277,3355164,-1627,434,-531,2590,-715,-227,149,421,11
996,1,2022-09-30T20:43:10.770084,3355171,-1627,434,-531,2590,-715,-227,149,421,11
997,1,2022-09-30T20:43:10.776484,3355180,-1636,424,-527,2427,-642,-303,149,421,11
998,1,2022-09-30T20:43:10.786057,3355189,-1636,424,-527,2427,-642,-303,149,421,11
999,1,2022-09-30T20:43:10.795031,3355197,-1630,427,-515,2294,-650,-262,149,421,11
1000,1,2022-09-30T20:43:10.804987,3355208,-1630,427,-515,2294,-650,-262,149,421,11
1001,1,2022-09-30T20:43:10.812283,3355215,-1630,427,-515,2294,-650,-262,149,421,11
1002,1,2022-09-30T20:43:10.820701,3355220,-1629,426,-515,2117,-642,-238,149,421,11
1003,1,2022-09-30T20:43:10.830452,3355234,-1629,426,-515,2117,-642,-238,149,421,11
1004,1,2022-09-30T20:43:10.837301,3355240,-1637,424,-504,1927,-638,-308,149,421,11
1005,1,2022-09-30T20:43:10.846093,3355247,-1637,424,-504,1927,-638,-308,149,421,11
1006,1,2022-09-30T20:43:10.855531,3355258,-1624,426,-494,1695,-625,-437,142,428,20
1007,1,2022-09-30T20:43:10.862551,3355266,-1624,426,-494,1695,-625,-437,142,428,20
1008,1,2022-09-30T20:43:10.870313,3355273,-1624,426,-494,1695,-625,-437,142,428,20
1009,1,2022-09-30T20:43:10.877484,3355280,-1618,427,-489,1403,-559,-573,142,428,20
1010,1,2022-09-30T20:43:10.885499,3355288,-1618,427,-489,1403,-559,-573,142,428,20
1011,1,2022-09-30T20:43:10.894298,3355296,-1621,425,-485,1104,-429,-692,142,428,20
1012,1,2022-09-30T20:43:10.904790,3355308,-1621,425,-485,1104,-429,-692,142,428,20
1013,1,2022-09-30T20:43:10.911954,3355315,-1621,425,-485,1104,-429,-692,142,428,20
1014,1,2022-09-30T20:43:10.920371,3355322,-1615,423,-484,761,-277,-766,142,428,20
1015,1,2022-09-30T20:43:10.926218,3355329,-1615,423,-484,761,-277,-766,142,428,20
1016,1,2022-09-30T20:43:10.934760,3355337,-1623,409,-483,381,-121,-808,142,428,20
1017,1,2022-09-30T20:43:10.941498,3355344,-1623,409,-483,381,-121,-808,142,428,20
1018,1,2022-09-30T20:43:10.950975,3355354,-1623,409,-483,381,-121,-808,142,428,20
1019,1,2022-09-30T20:43:10.959609,3355363,-1622,398,-486,7,-38,-815,142,428,20
1020,1,2022-09-30T20:43:10.968210,3355370,-1622,398,-486,7,-38,-815,142,428,20
1021,1,2022-09-30T20:43:10.979184,3355382,-1632,380,-492,-353,-2,-800,142,428,20
1022,1,2022-09-30T20:43:10.989018,3355392,-1632,380,-492,-353,-2,-800,142,428,20
1023,1,2022-09-30T20:43:10.997261,3355400,-1635,372,-495,-680,-22,-767,151,427,7
1024,1,2022-09-30T20:43:11.003044,3355406,-1635,372,-495,-680,-22,-767,151,427,7
1025,1,2022-09-30T20:43:11.010372,3355413,-1635,372,-495,-680,-22,-767,151,427,7
1026,1,2022-09-30T20:43:11.016088,3355419,-1639,358,-504,-970,-63,-734,151,427,7
1027,1,2022-09-30T20:43:11.027429,3355430,-1639,358,-504,-970,-63,-734,151,427,7
1028,1,2022-09-30T20:43:11.034930,3355438,-1640,354,-506,-1237,-102,-680,151,427,7
1029,1,2022-09-30T20:43:11.045026,3355447,-1640,354,-506,-1237,-102,-680,151,427,7
1030,1,2022-09-30T20:43:11.055116,3355458,-1639,348,-514,-1501,-142,-597,151,427,7
1031,1,2022-09-30T20:43:11.063466,3355466,-1639,348,-514,-1501,-142,-597,151,427,7
1032,1,2022-09-30T20:43:11.071499,3355473,-1639,348,-514,-1501,-142,-597,151,427,7
1033,1,2022-09-30T20:43:11.079664,3355483,-1638,353,-519,-1788,-193,-472,151,427,7
1034,1,2022-09-30T20:43:11.088806,3355492,-1638,353,-519,-1788,-193,-472,151,427,7
1035,1,2022-09-30T20:43:11.099460,3355502,-1638,354,-522,-2088,-265,-349,151,427,7
1036,1,2022-09-30T20:43:11.108170,3355511,-1638,354,-522,-2088,-265,-349,151,427,7
1037,1,2022-09-30T20:43:11.115414,3355518,-1640,359,-519,-2409,-338,-240,150,430,16
1038,1,2022-09-30T20:43:11.125339,3355528,-1640,359,-519,-2409,-338,-240,150,430,16
1039,1,2022-09-30T20:43:11.134023,3355537,-1644,359,-526,-2751,-419,-159,150,430,16
1040,1,2022-09-30T20:43:11.145625,3355548,-1644,359,-526,-2751,-419,-159,150,430,16
1041,1,2022-09-30T20:43:11.154943,3355558,-1634,363,-530,-3084,-531,-97,150,430,16
1042,1,2022-09-30T20:43:11.162602,3355566,-1634,363,-530,-3084,-531,-97,150,430,16
1043,1,2022-09-30T20:43:11.170709,3355572,-1634,363,-530,-3084,-531,-97,150,430,16
1044,1,2022-09-30T20:43:11.180720,3355584,-1634,365,-534,-3424,-621,-43,150,430,16
1045,1,2022-09-30T20:43:11.189136,3355592,-1634,365,-534,-3424,-621,-43,150,430,16
1046,1,2022-09-30T20:43:11.200095,3355603,-1631,367,-537,-3752,-679,8,150,430,16
1047,1,2022-09-30T20:43:11.205656,3355609,-1631,367,-537,-3752,-679,8,150,430,16
1048,1,2022-09-30T20:43:11.215367,3355617,-1630,373,-533,-4086,-713,32,150,430,16
1049,1,2022-09-30T20:43:11.227474,3355630,-1630,373,-533,-4086,-713,32,150,430,16
1050,1,2022-09-30T20:43:11.236000,3355638,-1629,379,-528,-4430,-731,29,153,429,15
1051,1,2022-09-30T20:43:11.245282,3355648,-1629,379,-528,-4430,-731,29,153,429,15
1052,1,2022-09-30T20:43:11.255598,3355658,-1634,381,-534,-4794,-760,26,153,429,15
1053,1,2022-09-30T20:43:11.262942,3355666,-1634,381,-534,-4794,-760,26,153,429,15
1054,1,2022-09-30T20:43:11.269700,3355671,-1634,381,-534,-4794,-760,26,153,429,15
1055,1,2022-09-30T20:43:11.276295,3355679,-1636,377,-545,-5138,-795,39,153,429,15
1056,1,2022-09-30T20:43:11.286188,3355688,-1636,377,-545,-5138,-795,39,153,429,15
1057,1,2022-09-30T20:43:11.294585,3355697,-1632,366,-551,-5441,-824,51,153,429,15
1058,1,2022-09-30T20:43:11.309583,3355713,-1632,366,-551,-5441,-824,51,153,429,15
1059,1,2022-09-30T20:43:11.316851,3355719,-1642,361,-556,-5685,-849,22,153,429,15
1060,1,2022-09-30T20:43:11.324529,3355726,-1642,361,-556,-5685,-849,22,153,429,15
1061,1,2022-09-30T20:43:11.332967,3355736,-1642,361,-556,-5685,-849,22,153,429,15
1062,1,2022-09-30T20:43:11.338871,3355742,-1653,367,-551,-5916,-971,-23,153,429,15
1063,1,2022-09-30T20:43:11.348988,3355751,-1653,367,-551,-5916,-971,-23,153,429,15
1064,1,2022-09-30T20:43:11.356957,3355760,-1648,371,-558,-6177,-1166,-28,158,432,16
1065,1,2022-09-30T20:43:11.364097,3355767,-1648,371,-558,-6177,-1166,-28,158,432,16
1066,1,2022-09-30T20:43:11.371647,3355772,-1648,371,-558,-6177,-1166,-28,158,432,16
1067,1,2022-09-30T20:43:11.381709,3355785,-1646,382,-548,-6485,-1334,2,158,432,16
1068,1,2022-09-30T20:43:11.389813,3355793,-1646,382,-548,-6485,-1334,2,158,432,16
1069,1,2022-09-30T20:43:11.403340,3355806,-1643,396,-542,-6827,-1451,72,158,432,16
1070,1,2022-09-30T20:43:11.412421,3355815,-1643,396,-542,-6827,-1451,72,158,432,16
1071,1,2022-09-30T20:43:11.418587,3355821,-1640,401,-542,-7237,-1538,179,158,432,16
1072,1,2022-09-30T20:43:11.427534,3355831,-1640,401,-542,-7237,-1538,179,158,432,16
1073,1,2022-09-30T20:43:11.435927,3355839,-1644,402,-539,-7631,-1635,291,158,432,16
1074,1,2022-09-30T20:43:11.445267,3355847,-1644,402,-539,-7631,-1635,291,158,432,16
1075,1,2022-09-30T20:43:11.453564,3355856,-1637,403,-542,-8012,-1712,328,158,432,16
1076,1,2022-09-30T20:43:11.463932,3355867,-1637,403,-542,-8012,-1712,328,158,432,16
1077,1,2022-09-30T20:43:11.471783,3355872,-1637,403,-542,-8012,-1712,328,158,432,16
1078,1,2022-09-30T20:43:11.481120,3355884,-1642,398,-543,-8345,-1745,327,158,432,16
1079,1,2022-09-30T20:43:11.488273,3355891,-1642,398,-543,-8345,-1745,327,158,432,16
1080,1,2022-09-30T20:43:11.496829,3355898,-1634,394,-545,-8608,-1785,314,162,424,42
1081,1,2022-09-30T20:43:11.506329,3355909,-1634,394,-545,-8608,-1785,314,162,424,42
1082,1,2022-09-30T20:43:11.514716,3355918,-1645,396,-540,-8829,-1809,326,162,424,42
1083,1,2022-09-30T20:43:11.522358,3355925,-1645,396,-540,-8829,-1809,326,162,424,42
1084,1,2022-09-30T20:43:11.528543,3355931,-1645,396,-540,-8829,-1809,326,162,424,42
1085,1,2022-09-30T20:43:11.536257,3355939,-1646,403,-542,-8997,-1889,314,162,424,42
1086,1,2022-09-30T20:43:11.546128,3355948,-1646,403,-542,-8997,-1889,314,162,424,42
1087,1,2022-09-30T20:43:11.555900,3355958,-1624,409,-545,-9236,-1957,400,162,424,42
1088,1,2022-09-30T20:43:11.567616,3355970,-1624,409,-545,-9236,-1957,400,162,424,42
1089,1,2022-09-30T20:43:11.575111,3355978,-1629,416,-544,-9439,-1888,411,162,424,42
1090,1,2022-09-30T20:43:11.583990,3355987,-1629,416,-544,-9439,-1888,411,162,424,42
1091,1,2022-09-30T20:43:11.590955,3355994,-1629,416,-544,-9439,-1888,411,162,424,42
1092,1,2022-09-30T20:43:11.599680,3356003,-1641,419,-543,-9641,-1830,355,162,424,42
1093,1,2022-09-30T20:43:11.607505,3356011,-1641,419,-543,-9641,-1830,355,162,424,42
1094,1,2022-09-30T20:43:11.628268,3356018,-1652,421,-544,-9858,-1845,300,179,419,43
1095,1,2022-09-30T20:43:11.636641,3356039,-1643,417,-551,-10101,-1907,237,179,419,43
1096,1,2022-09-30T20:43:11.645850,3356047,-1643,417,-551,-10101,-1907,237,179,419,43
1097,1,2022-09-30T20:43:11.656037,3356059,-1638,425,-550,-10344,-1942,146,179,419,43
1098,1,2022-09-30T20:43:11.662664,3356065,-1638,425,-550,-10344,-1942,146,179,419,43
1099,1,2022-09-30T20:43:11.671254,3356072,-1638,425,-550,-10344,-1942,146,179,419,43
1100,1,2022-09-30T20:43:11.680407,3356084,-1637,428,-554,-10588,-1950,93,179,419,43
1101,1,2022-09-30T20:43:11.686079,3356089,-1637,428,-554,-10588,-1950,93,179,419,43
1102,1,2022-09-30T20:43:11.693552,3356096,-1637,428,-554,-10588,-1950,93,179,419,43
1103,1,2022-09-30T20:43:11.703826,3356107,-1643,437,-560,-10820,-1965,113,179,419,43
1104,1,2022-09-30T20:43:11.712869,3356115,-1643,437,-560,-10820,-1965,113,179,419,43
1105,1,2022-09-30T20:43:11.719613,3356123,-1632,438,-564,-11076,-1958,211,179,419,43
1106,1,2022-09-30T20:43:11.726896,3356130,-1632,438,-564,-11076,-1958,211,179,419,43
1107,1,2022-09-30T20:43:11.733710,3356137,-1641,430,-567,-11286,-1938,198,193,409,53
1108,1,2022-09-30T20:43:11.742031,3356144,-1641,430,-567,-11286,-1938,198,193,409,53
1109,1,2022-09-30T20:43:11.749081,3356152,-1641,430,-567,-11286,-1938,198,193,409,53
1110,1,2022-09-30T20:43:11.758441,3356162,-1648,434,-573,-11487,-1941,171,193,409,53
1111,1,2022-09-30T20:43:11.763807,3356167,-1648,434,-573,-11487,-1941,171,193,409,53
1112,1,2022-09-30T20:43:11.771377,3356174,-1648,434,-573,-11487,-1941,171,193,409,53
1113,1,2022-09-30T20:43:11.777572,3356181,-1644,434,-578,-11691,-1976,151,193,409,53
1114,1,2022-09-30T20:43:11.786349,3356189,-1644,434,-578,-11691,-1976,151,193,409,53
1115,1,2022-09-30T20:43:11.794890,3356196,-1645,431,-585,-11859,-2009,137,193,409,53
1116,1,2022-09-30T20:43:11.805861,3356209,-1645,431,-585,-11859,-2009,137,193,409,53
1117,1,2022-09-30T20:43:11.813168,3356216,-1645,431,-585,-11859,-2009,137,193,409,53
1118,1,2022-09-30T20:43:11.820393,3356222,-1643,437,-588,-12011,-2021,126,193,409,53
1119,1,2022-09-30T20:43:11.832229,3356235,-1643,437,-588,-12011,-2021,126,193,409,53
1120,1,2022-09-30T20:43:11.840456,3356243,-1645,442,-591,-12137,-2006,113,193,409,53
1121,1,2022-09-30T20:43:11.849145,3356251,-1645,442,-591,-12137,-2006,113,193,409,53
1122,1,2022-09-30T20:43:11.855444,3356258,-1646,445,-591,-12261,-2000,117,217,415,57
1123,1,2022-09-30T20:43:11.864207,3356267,-1646,445,-591,-12261,-2000,117,217,415,57
1124,1,2022-09-30T20:43:11.871821,3356274,-1646,445,-591,-12261,-2000,117,217,415,57
1125,1,2022-09-30T20:43:11.885368,3356288,-1647,447,-593,-12390,-2011,146,217,415,57
1126,1,2022-09-30T20:43:11.898402,3356301,-1648,449,-602,-12539,-2000,176,217,415,57
1127,1,2022-09-30T20:43:11.907225,3356310,-1648,449,-602,-12539,-2000,176,217,415,57
1128,1,2022-09-30T20:43:11.914048,3356317,-1652,452,-605,-12689,-1998,185,217,415,57
1129,1,2022-09-30T20:43:11.919750,3356322,-1652,452,-605,-12689,-1998,185,217,415,57
1130,1,2022-09-30T20:43:11.926067,3356328,-1652,452,-605,-12689,-1998,185,217,415,57
1131,1,2022-09-30T20:43:11.934725,3356338,-1660,456,-611,-12836,-1993,170,217,415,57
1132,1,2022-09-30T20:43:11.945826,3356349,-1660,456,-611,-12836,-1993,170,217,415,57
1133,1,2022-09-30T20:43:11.953921,3356357,-1640,453,-617,-12965,-2068,207,217,415,57
1134,1,2022-09-30T20:43:11.960304,3356362,-1640,453,-617,-12965,-2068,207,217,415,57
1135,1,2022-09-30T20:43:11.965838,3356369,-1640,453,-617,-12965,-2068,207,217,415,57
1136,1,2022-09-30T20:43:11.974437,3356377,-1645,458,-618,-13071,-2134,213,217,415,57
1137,1,2022-09-30T20:43:11.985340,3356389,-1645,458,-618,-13071,-2134,213,217,415,57
1138,1,2022-09-30T20:43:11.994549,3356396,-1645,458,-618,-13071,-2134,213,217,415,57
1139,1,2022-09-30T20:43:12.003907,3356406,-1664,455,-617,-13173,-2153,125,232,420,64
1140,1,2022-09-30T20:43:12.013306,3356417,-1664,455,-617,-13173,-2153,125,232,420,64
1141,1,2022-09-30T20:43:12.022010,3356422,-1649,456,-622,-13292,-2212,53,232,420,64
1142,1,2022-09-30T20:43:12.031399,3356434,-1649,456,-622,-13292,-2212,53,232,420,64
1143,1,2022-09-30T20:43:12.038353,3356441,-1642,457,-620,-13376,-2215,-17,232,420,64
1144,1,2022-09-30T20:43:12.045646,3356447,-1642,457,-620,-13376,-2215,-17,232,420,64
1145,1,2022-09-30T20:43:12.053730,3356457,-1650,451,-626,-13444,-2209,-63,232,420,64
1146,1,2022-09-30T20:43:12.061350,3356464,-1650,451,-626,-13444,-2209,-63,232,420,64
1147,1,2022-09-30T20:43:12.067873,3356471,-1650,451,-626,-13444,-2209,-63,232,420,64
1148,1,2022-09-30T20:43:12.076940,3356480,-1649,453,-620,-13493,-2269,-66,232,420,64
1149,1,2022-09-30T20:43:12.087410,3356490,-1649,453,-620,-13493,-2269,-66,232,420,64
1150,1,2022-09-30T20:43:12.095480,3356497,-1653,454,-618,-13545,-2320,-103,232,420,64
1151,1,2022-09-30T20:43:12.106038,3356509,-1653,454,-618,-13545,-2320,-103,232,420,64
1152,1,2022-09-30T20:43:12.113090,3356516,-1653,454,-618,-13545,-2320,-103,232,420,64
1153,1,2022-09-30T20:43:12.120275,3356522,-1654,459,-613,-13622,-2387,-166,267,409,71
1154,1,2022-09-30T20:43:12.129649,3356532,-1654,459,-613,-13622,-2387,-166,267,409,71
1155,1,2022-09-30T20:43:12.137300,3356540,-1648,454,-610,-13730,-2423,-223,267,409,71
1156,1,2022-09-30T20:43:12.143688,3356547,-1648,454,-610,-13730,-2423,-223,267,409,71
1157,1,2022-09-30T20:43:12.153225,3356556,-1648,454,-610,-13730,-2423,-223,267,409,71
1158,1,2022-09-30T20:43:12.161981,3356565,-1652,452,-614,-13840,-2413,-237,267,409,71
1159,1,2022-09-30T20:43:12.170557,3356572,-1652,452,-614,-13840,-2413,-237,267,409,71
1160,1,2022-09-30T20:43:12.180283,3356583,-1637,441,-614,-13917,-2421,-168,267,409,71
1161,1,2022-09-30T20:43:12.187871,3356591,-1637,441,-614,-13917,-2421,-168,267,409,71
1162,1,2022-09-30T20:43:12.195193,3356598,-1597,437,-625,-13936,-2446,-12,267,409,71
1163,1,2022-09-30T20:43:12.203992,3356607,-1597,437,-625,-13936,-2446,-12,267,409,71
1164,1,2022-09-30T20:43:12.211335,3356614,-1597,437,-625,-13936,-2446,-12,267,409,71
1165,1,2022-09-30T20:43:12.219380,3356620,-1665,425,-617,-13892,-2258,-228,267,409,71
1166,1,2022-09-30T20:43:12.229700,3356633,-1665,425,-617,-13892,-2258,-228,267,409,71
1167,1,2022-09-30T20:43:12.236826,3356640,-1651,425,-608,-13882,-2300,-337,291,397,61
1168,1,2022-09-30T20:43:12.245444,3356647,-1651,425,-608,-13882,-2300,-337,291,397,61
1169,1,2022-09-30T20:43:12.255317,3356658,-1626,423,-608,-13841,-2291,-419,291,397,61
1170,1,2022-09-30T20:43:12.265801,3356668,-1626,423,-608,-13841,-2291,-419,291,397,61
1171,1,2022-09-30T20:43:12.275144,3356678,-1625,420,-608,-13795,-2276,-437,291,397,61
1172,1,2022-09-30T20:43:12.284789,3356688,-1625,420,-608,-13795,-2276,-437,291,397,61
1173,1,2022-09-30T20:43:12.291730,3356695,-1625,420,-608,-13795,-2276,-437,291,397,61
1174,1,2022-09-30T20:43:12.303169,3356706,-1641,410,-612,-13755,-2299,-420,291,397,61
1175,1,2022-09-30T20:43:12.312321,3356716,-1641,410,-612,-13755,-2299,-420,291,397,61
1176,1,2022-09-30T20:43:12.320452,3356723,-1645,402,-606,-13725,-2317,-431,291,397,61
1177,1,2022-09-30T20:43:12.330830,3356734,-1645,402,-606,-13725,-2317,-431,291,397,61
1178,1,2022-09-30T20:43:12.338075,3356741,-1642,401,-616,-13692,-2290,-477,291,397,61
1179,1,2022-09-30T20:43:12.346142,3356748,-1642,401,-616,-13692,-2290,-477,291,397,61
1180,1,2022-09-30T20:43:12.356463,3356760,-1640,400,-617,-13659,-2242,-466,310,392,38
1181,1,2022-09-30T20:43:12.363305,3356767,-1640,400,-617,-13659,-2242,-466,310,392,38
1182,1,2022-09-30T20:43:12.371413,3356774,-1640,400,-617,-13659,-2242,-466,310,392,38
1183,1,2022-09-30T20:43:12.377396,3356780,-1641,391,-622,-13623,-2183,-350,310,392,38
1184,1,2022-09-30T20:43:12.384365,3356787,-1641,391,-622,-13623,-2183,-350,310,392,38
1185,1,2022-09-30T20:43:12.394593,3356795,-1641,391,-622,-13623,-2183,-350,310,392,38
1186,1,2022-09-30T20:43:12.401905,3356805,-1648,400,-615,-13570,-2158,-203,310,392,38
1187,1,2022-09-30T20:43:12.408509,3356812,-1648,400,-615,-13570,-2158,-203,310,392,38
1188,1,2022-09-30T20:43:12.415597,3356819,-1660,406,-623,-13534,-2212,-81,310,392,38
1189,1,2022-09-30T20:43:12.421383,3356824,-1660,406,-623,-13534,-2212,-81,310,392,38
1190,1,2022-09-30T20:43:12.429085,3356830,-1660,406,-623,-13534,-2212,-81,310,392,38
1191,1,2022-09-30T20:43:12.436240,3356839,-1638,401,-626,-13513,-2321,43,310,392,38
1192,1,2022-09-30T20:43:12.447775,3356850,-1638,401,-626,-13513,-2321,43,310,392,38
1193,1,2022-09-30T20:43:12.456009,3356859,-1629,407,-623,-13452,-2304,124,310,392,38
1194,1,2022-09-30T20:43:12.463093,3356866,-1629,407,-623,-13452,-2304,124,310,392,38
1195,1,2022-09-30T20:43:12.470036,3356872,-1629,407,-623,-13452,-2304,124,310,392,38
1196,1,2022-09-30T20:43:12.479562,3356882,-1644,415,-621,-13365,-2260,171,310,392,38
1197,1,2022-09-30T20:43:12.486701,3356890,-1644,415,-621,-13365,-2260,171,310,392,38
1198,1,2022-09-30T20:43:12.494101,3356897,-1658,415,-611,-13289,-2264,142,310,392,38
1199,1,2022-09-30T20:43:12.507408,3356910,-1658,415,-611,-13289,-2264,142,333,395,33
1200,1,2022-09-30T20:43:12.515388,3356918,-1644,422,-620,-13243,-2303,50,333,395,33
1201,1,2022-09-30T20:43:12.527502,3356931,-1644,422,-620,-13243,-2303,50,333,395,33
1202,1,2022-09-30T20:43:12.536252,3356940,-1639,421,-613,-13223,-2258,-70,333,395,33
1203,1,2022-09-30T20:43:12.545952,3356948,-1639,421,-613,-13223,-2258,-70,333,395,33
1204,1,2022-09-30T20:43:12.555498,3356958,-1643,432,-616,-13166,-2201,-51,333,395,33
1205,1,2022-09-30T20:43:12.566025,3356968,-1643,432,-616,-13166,-2201,-51,333,395,33
1206,1,2022-09-30T20:43:12.574648,3356978,-1643,432,-615,-13079,-2150,56,333,395,33
1207,1,2022-09-30T20:43:12.584664,3356988,-1643,432,-615,-13079,-2150,56,333,395,33
1208,1,2022-09-30T20:43:12.591728,3356995,-1643,432,-615,-13079,-2150,56,333,395,33
1209,1,2022-09-30T20:43:12.599783,3357000,-1649,432,-613,-12967,-2111,160,333,395,33
1210,1,2022-09-30T20:43:12.609363,3357012,-1649,432,-613,-12967,-2111,160,333,395,33
1211,1,2022-09-30T20:43:12.616789,3357020,-1654,438,-609,-12859,-2078,204,352,382,8
1212,1,2022-09-30T20:43:12.631465,3357034,-1654,438,-609,-12859,-2078,204,352,382,8
1213,1,2022-09-30T20:43:12.638551,3357041,-1658,447,-609,-12736,-2077,221,352,382,8
1214,1,2022-09-30T20:43:12.646134,3357048,-1658,447,-609,-12736,-2077,221,352,382,8
1215,1,2022-09-30T20:43:12.656281,3357060,-1665,458,-610,-12597,-2064,212,352,382,8
1216,1,2022-09-30T20:43:12.665531,3357069,-1665,458,-610,-12597,-2064,212,352,382,8
1217,1,2022-09-30T20:43:12.676178,3357079,-1643,463,-609,-12466,-2082,202,352,382,8
1218,1,2022-09-30T20:43:12.684959,3357088,-1643,463,-609,-12466,-2082,202,352,382,8
1219,1,2022-09-30T20:43:12.692082,3357095,-1643,463,-609,-12466,-2082,202,352,382,8
1220,1,2022-09-30T20:43:12.700962,3357104,-1638,466,-606,-12340,-2020,125,352,382,8
1221,1,2022-09-30T20:43:12.707954,3357112,-1638,466,-606,-12340,-2020,125,352,382,8
1222,1,2022-09-30T20:43:12.716491,3357120,-1627,466,-601,-12234,-1949,-27,352,382,8
1223,1,2022-09-30T20:43:12.731288,3357134,-1627,466,-601,-12234,-1949,-27,352,382,8
1224,1,2022-09-30T20:43:12.738623,3357142,-1609,463,-606,-12133,-1855,-203,360,396,-4
1225,1,2022-09-30T20:43:12.748613,3357151,-1609,463,-606,-12133,-1855,-203,360,396,-4
1226,1,2022-09-30T20:43:12.755693,3357159,-1607,456,-607,-12032,-1725,-421,360,396,-4
1227,1,2022-09-30T20:43:12.761214,3357164,-1607,456,-607,-12032,-1725,-421,360,396,-4
1228,1,2022-09-30T20:43:12.769887,3357171,-1607,456,-607,-12032,-1725,-421,360,396,-4
1229,1,2022-09-30T20:43:12.780344,3357184,-1599,441,-620,-11905,-1588,-668,360,396,-4
1230,1,2022-09-30T20:43:12.787722,3357191,-1599,441,-620,-11905,-1588,-668,360,396,-4
1231,1,2022-09-30T20:43:12.795617,3357198,-1597,415,-622,-11737,-1403,-980,360,396,-4
1232,1,2022-09-30T20:43:12.805548,3357208,-1597,415,-622,-11737,-1403,-980,360,396,-4
1233,1,2022-09-30T20:43:12.811293,3357214,-1597,415,-622,-11737,-1403,-980,360,396,-4
1234,1,2022-09-30T20:43:12.816996,3357220,-1593,397,-628,-11560,-1281,-1272,360,396,-4
1235,1,2022-09-30T20:43:12.828063,3357232,-1593,397,-628,-11560,-1281,-1272,360,396,-4
1236,1,2022-09-30T20:43:12.835216,3357239,-1603,373,-642,-11369,-1146,-1603,360,396,-4
1237,1,2022-09-30T20:43:12.842523,3357246,-1603,373,-642,-11369,-1146,-1603,360,396,-4
1238,1,2022-09-30T20:43:12.849302,3357252,-1603,373,-642,-11369,-1146,-1603,360,396,-4
1239,1,2022-09-30T20:43:12.854430,3357257,-1594,348,-643,-11240,-1063,-1879,372,384,-34
1240,1,2022-09-30T20:43:12.860075,3357263,-1594,348,-643,-11240,-1063,-1879,372,384,-34
1241,1,2022-09-30T20:43:12.865551,3357268,-1594,348,-643,-11240,-1063,-1879,372,384,-34
1242,1,2022-09-30T20:43:12.877580,3357278,-1590,326,-660,-11131,-926,-2134,372,384,-34
1243,1,2022-09-30T20:43:12.888698,3357291,-1590,326,-660,-11131,-926,-2134,372,384,-34
1244,1,2022-09-30T20:43:12.897565,3357300,-1598,300,-678,-11062,-784,-2275,372,384,-34
1245,1,2022-09-30T20:43:12.907956,3357310,-1598,300,-678,-11062,-784,-2275,372,384,-34
1246,1,2022-09-30T20:43:12.915059,3357318,-1610,279,-682,-11004,-703,-2298,372,384,-34
1247,1,2022-09-30T20:43:12.925106,3357328,-1610,279,-682,-11004,-703,-2298,372,384,-34
1248,1,2022-09-30T20:43:12.933824,3357336,-1610,279,-682,-11004,-703,-2298,372,384,-34
1249,1,2022-09-30T20:43:12.943981,3357347,-1603,257,-692,-10956,-653,-2216,372,384,-34
1250,1,2022-09-30T20:43:12.956132,3357360,-1604,242,-702,-10872,-575,-2081,372,384,-34
1251,1,2022-09-30T20:43:12.964397,3357367,-1604,242,-702,-10872,-575,-2081,372,384,-34
1252,1,2022-09-30T20:43:12.973842,3357376,-1604,242,-702,-10872,-575,-2081,372,384,-34
1253,1,2022-09-30T20:43:12.979996,3357383,-1602,231,-714,-10749,-464,-1893,372,384,-34
1254,1,2022-09-30T20:43:12.987801,3357390,-1602,231,-714,-10749,-464,-1893,372,384,-34
1255,1,2022-09-30T20:43:12.996236,3357399,-1616,231,-713,-10593,-395,-1665,383,387,-55
1256,1,2022-09-30T20:43:13.005625,3357409,-1616,231,-713,-10593,-395,-1665,383,387,-55
1257,1,2022-09-30T20:43:13.012973,3357416,-1616,231,-713,-10593,-395,-1665,383,387,-55
1258,1,2022-09-30T20:43:13.018931,3357422,-1614,234,-731,-10402,-396,-1384,383,387,-55
1259,1,2022-09-30T20:43:13.031573,3357433,-1614,234,-731,-10402,-396,-1384,383,387,-55
1260,1,2022-09-30T20:43:13.038871,3357442,-1622,225,-740,-10183,-370,-1122,383,387,-55
1261,1,2022-09-30T20:43:13.045866,3357449,-1622,225,-740,-10183,-370,-1122,383,387,-55
1262,1,2022-09-30T20:43:13.054558,3357458,-1624,222,-752,-9913,-329,-942,383,387,-55
1263,1,2022-09-30T20:43:13.066447,3357468,-1624,222,-752,-9913,-329,-942,383,387,-55
1264,1,2022-09-30T20:43:13.078235,3357481,-1622,229,-759,-9602,-305,-761,383,387,-55
1265,1,2022-09-30T20:43:13.088730,3357492,-1622,229,-759,-9602,-305,-761,383,387,-55
1266,1,2022-09-30T20:43:13.100501,3357503,-1632,240,-763,-9252,-320,-626,383,387,-55
1267,1,2022-09-30T20:43:13.109779,3357513,-1632,240,-763,-9252,-320,-626,383,387,-55
1268,1,2022-09-30T20:43:13.116795,3357520,-1634,248,-763,-8888,-459,-462,388,386,-86
1269,1,2022-09-30T20:43:13.128481,3357532,-1634,248,-763,-8888,-459,-462,388,386,-86
1270,1,2022-09-30T20:43:13.135770,3357539,-1628,252,-771,-8504,-626,-359,388,386,-86
1271,1,2022-09-30T20:43:13.145725,3357548,-1628,252,-771,-8504,-626,-359,388,386,-86
1272,1,2022-09-30T20:43:13.154516,3357557,-1631,255,-772,-8105,-793,-277,388,386,-86
1273,1,2022-09-30T20:43:13.164086,3357568,-1631,255,-772,-8105,-793,-277,388,386,-86
1274,1,2022-09-30T20:43:13.171995,3357575,-1631,255,-772,-8105,-793,-277,388,386,-86
1275,1,2022-09-30T20:43:13.180440,3357584,-1623,263,-779,-7680,-928,-266,388,386,-86
1276,1,2022-09-30T20:43:13.186387,3357589,-1623,263,-779,-7680,-928,-266,388,386,-86
1277,1,2022-09-30T20:43:13.194160,3357597,-1614,272,-770,-7251,-1071,-288,388,386,-86
1278,1,2022-09-30T20:43:13.203146,3357606,-1614,272,-770,-7251,-1071,-288,388,386,-86
1279,1,2022-09-30T20:43:13.208368,3357612,-1614,272,-770,-7251,-1071,-288,388,386,-86
1280,1,2022-09-30T20:43:13.215355,3357619,-1614,277,-767,-6867,-1135,-417,388,386,-86
1281,1,2022-09-30T20:43:13.230617,3357634,-1614,277,-767,-6867,-1135,-417,388,386,-86
1282,1,2022-09-30T20:43:13.242997,3357645,-1601,281,-761,-6569,-1161,-574,372,376,-100
1283,1,2022-09-30T20:43:13.250243,3357654,-1601,281,-761,-6569,-1161,-574,372,376,-100
1284,1,2022-09-30T20:43:13.257532,3357661,-1598,280,-763,-6321,-1129,-769,372,376,-100
1285,1,2022-09-30T20:43:13.266650,3357670,-1598,280,-763,-6321,-1129,-769,372,376,-100
1286,1,2022-09-30T20:43:13.277867,3357681,-1599,281,-756,-6142,-1126,-914,372,376,-100
1287,1,2022-09-30T20:43:13.288843,3357691,-1599,281,-756,-6142,-1126,-914,372,376,-100
1288,1,2022-09-30T20:43:13.296439,3357699,-1613,273,-759,-5984,-1138,-1058,372,376,-100
1289,1,2022-09-30T20:43:13.307591,3357711,-1613,273,-759,-5984,-1138,-1058,372,376,-100
1290,1,2022-09-30T20:43:13.314278,3357718,-1592,253,-761,-5874,-1212,-1081,372,376,-100
1291,1,2022-09-30T20:43:13.322021,3357724,-1592,253,-761,-5874,-1212,-1081,372,376,-100
1292,1,2022-09-30T20:43:13.329863,3357733,-1592,253,-761,-5874,-1212,-1081,372,376,-100
1293,1,2022-09-30T20:43:13.337283,3357741,-1591,237,-759,-5713,-1155,-1148,372,376,-100
1294,1,2022-09-30T20:43:13.342873,3357746,-1591,237,-759,-5713,-1155,-1148,372,376,-100
1295,1,2022-09-30T20:43:13.351462,3357752,-1591,237,-759,-5713,-1155,-1148,372,376,-100
1296,1,2022-09-30T20:43:13.359982,3357763,-1599,213,-749,-5495,-1111,-1196,379,373,-107
1297,1,2022-09-30T20:43:13.365417,3357768,-1599,213,-749,-5495,-1111,-1196,379,373,-107
1298,1,2022-09-30T20:43:13.373836,3357776,-1599,213,-749,-5495,-1111,-1196,379,373,-107
1299,1,2022-09-30T20:43:13.384237,3357788,-1609,194,-752,-5248,-1144,-1235,379,373,-107
1300,1,2022-09-30T20:43:13.392885,3357796,-1609,194,-752,-5248,-1144,-1235,379,373,-107
1301,1,2022-09-30T20:43:13.404835,3357808,-1600,176,-749,-4961,-1220,-1241,379,373,-107
1302,1,2022-09-30T20:43:13.413605,3357816,-1600,176,-749,-4961,-1220,-1241,379,373,-107
1303,1,2022-09-30T20:43:13.419914,3357822,-1588,163,-755,-4647,-1254,-1207,379,373,-107
1304,1,2022-09-30T20:43:13.427596,3357831,-1588,163,-755,-4647,-1254,-1207,379,373,-107
1305,1,2022-09-30T20:43:13.435031,3357838,-1582,152,-748,-4302,-1231,-1105,379,373,-107
1306,1,2022-09-30T20:43:13.441844,3357845,-1582,152,-748,-4302,-1231,-1105,379,373,-107
1307,1,2022-09-30T20:43:13.448567,3357851,-1582,152,-748,-4302,-1231,-1105,379,373,-107
1308,1,2022-09-30T20:43:13.457466,3357860,-1579,146,-739,-3948,-1169,-947,379,373,-107
1309,1,2022-09-30T20:43:13.470698,3357874,-1579,146,-739,-3948,-1169,-947,379,373,-107
1310,1,2022-09-30T20:43:13.479588,3357883,-1574,141,-743,-3583,-1056,-805,382,372,-116
1311,1,2022-09-30T20:43:13.485895,3357889,-1574,141,-743,-3583,-1056,-805,382,372,-116
1312,1,2022-09-30T20:43:13.492645,3357895,-1574,141,-743,-3583,-1056,-805,382,372,-116
1313,1,2022-09-30T20:43:13.501232,3357904,-1576,137,-738,-3216,-908,-700,382,372,-116
1314,1,2022-09-30T20:43:13.510627,3357914,-1576,137,-738,-3216,-908,-700,382,372,-116
1315,1,2022-09-30T20:43:13.517849,3357921,-1577,136,-738,-2824,-762,-604,382,372,-116
1316,1,2022-09-30T20:43:13.527205,3357931,-1577,136,-738,-2824,-762,-604,382,372,-116
1317,1,2022-09-30T20:43:13.534633,3357937,-1575,138,-742,-2440,-639,-502,382,372,-116
1318,1,2022-09-30T20:43:13.545949,3357949,-1575,138,-742,-2440,-639,-502,382,372,-116
1319,1,2022-09-30T20:43:13.553679,3357957,-1575,138,-742,-2440,-639,-502,382,372,-116
1320,1,2022-09-30T20:43:13.559646,3357963,-1575,142,-741,-2039,-508,-398,382,372,-116
1321,1,2022-09-30T20:43:13.566729,3357970,-1575,142,-741,-2039,-508,-398,382,372,-116
1322,1,2022-09-30T20:43:13.576275,3357979,-1578,144,-740,-1638,-401,-307,382,372,-116
1323,1,2022-09-30T20:43:13.585505,3357988,-1578,144,-740,-1638,-401,-307,382,372,-116
1324,1,2022-09-30T20:43:13.592125,3357996,-1578,144,-740,-1638,-401,-307,382,372,-116
1325,1,2022-09-30T20:43:13.599953,3358003,-1582,149,-734,-1252,-298,-201,382,372,-116
1326,1,2022-09-30T20:43:13.608689,3358012,-1582,149,-734,-1252,-298,-201,382,372,-116
1327,1,2022-09-30T20:43:13.616086,3358019,-1578,152,-741,-888,-211,-127,379,377,-129
1328,1,2022-09-30T20:43:13.627772,3358031,-1578,152,-741,-888,-211,-127,379,377,-129
1329,1,2022-09-30T20:43:13.635183,3358039,-1577,156,-741,-551,-134,-68,379,377,-129
1330,1,2022-09-30T20:43:13.645281,3358048,-1577,156,-741,-551,-134,-68,379,377,-129
1331,1,2022-09-30T20:43:13.654918,3358058,-1580,163,-731,-243,-41,-40,379,377,-129
1332,1,2022-09-30T20:43:13.666661,3358069,-1580,163,-731,-243,-41,-40,379,377,-129
1333,1,2022-09-30T20:43:13.677129,3358081,-1579,161,-734,48,17,-24,379,377,-129
1334,1,2022-09-30T20:43:13.687903,3358091,-1579,161,-734,48,17,-24,379,377,-129
1335,1,2022-09-30T20:43:13.696104,3358098,-1584,164,-734,330,69,-10,379,377,-129
1336,1,2022-09-30T20:43:13.707912,3358111,-1584,164,-734,330,69,-10,379,377,-129
1337,1,2022-09-30T20:43:13.715289,3358118,-1588,159,-739,617,114,34,379,377,-129
1338,1,2022-09-30T20:43:13.726503,3358129,-1588,159,-739,617,114,34,379,377,-129
1339,1,2022-09-30T20:43:13.734496,3358138,-1587,156,-730,896,152,95,381,373,-115
1340,1,2022-09-30T20:43:13.740154,3358143,-1587,156,-730,896,152,95,381,373,-115
1341,1,2022-09-30T20:43:13.746301,3358149,-1587,156,-730,896,152,95,381,373,-115
1342,1,2022-09-30T20:43:13.756061,3358159,-1583,155,-735,1214,212,143,381,373,-115
1343,1,2022-09-30T20:43:13.763346,3358167,-1583,155,-735,1214,212,143,381,373,-115
1344,1,2022-09-30T20:43:13.769603,3358173,-1583,155,-735,1214,212,143,381,373,-115
1345,1,2022-09-30T20:43:13.782024,3358185,-1582,152,-731,1543,285,174,381,373,-115
1346,1,2022-09-30T20:43:13.791720,3358195,-1582,152,-731,1543,285,174,381,373,-115
1347,1,2022-09-30T20:43:13.804816,3358208,-1589,155,-736,1890,344,213,381,373,-115
1348,1,2022-09-30T20:43:13.812773,3358216,-1589,155,-736,1890,344,213,381,373,-115
1349,1,2022-09-30T20:43:13.820564,3358223,-1583,159,-733,2236,390,279,381,373,-115
1350,1,2022-09-30T20:43:13.827848,3358231,-1583,159,-733,2236,390,279,381,373,-115
1351,1,2022-09-30T20:43:13.834709,3358238,-1585,162,-738,2580,464,345,381,373,-115
1352,1,2022-09-30T20:43:13.841145,3358244,-1585,162,-738,2580,464,345,381,373,-115
1353,1,2022-09-30T20:43:13.847349,3358251,-1585,162,-738,2580,464,345,381,373,-115
1354,1,2022-09-30T20:43:13.855870,3358259,-1582,168,-726,2920,547,426,380,368,-104
1355,1,2022-09-30T20:43:13.863960,3358267,-1582,168,-726,2920,547,426,380,368,-104
1356,1,2022-09-30T20:43:13.870695,3358273,-1582,168,-726,2920,547,426,380,368,-104
1357,1,2022-09-30T20:43:13.879261,3358282,-1583,176,-727,3224,636,506,380,368,-104
1358,1,2022-09-30T20:43:13.885597,3358287,-1583,176,-727,3224,636,506,380,368,-104
1359,1,2022-09-30T20:43:13.891846,3358296,-1583,176,-727,3224,636,506,380,368,-104
1360,1,2022-09-30T20:43:13.902156,3358306,-1582,186,-726,3521,736,567,380,368,-104
1361,1,2022-09-30T20:43:13.907425,3358311,-1582,186,-726,3521,736,567,380,368,-104
1362,1,2022-09-30T20:43:13.914286,3358317,-1584,190,-724,3771,834,614,380,368,-104
1363,1,2022-09-30T20:43:13.922014,3358324,-1584,190,-724,3771,834,614,380,368,-104
1364,1,2022-09-30T20:43:13.928036,3358331,-1584,190,-724,3771,834,614,380,368,-104
1365,1,2022-09-30T20:43:13.935586,3358338,-1582,189,-730,4034,948,683,380,368,-104
1366,1,2022-09-30T20:43:13.945676,3358349,-1582,189,-730,4034,948,683,380,368,-104
1367,1,2022-09-30T20:43:13.952922,3358356,-1582,189,-730,4034,948,683,380,368,-104
1368,1,2022-09-30T20:43:13.958689,3358361,-1579,188,-738,4339,1107,727,380,368,-104
1369,1,2022-09-30T20:43:13.966827,3358370,-1579,188,-738,4339,1107,727,380,368,-104
1370,1,2022-09-30T20:43:13.977154,3358381,-1586,187,-742,4665,1266,679,390,380,-88
1371,1,2022-09-30T20:43:13.988517,3358391,-1586,187,-742,4665,1266,679,390,380,-88
1372,1,2022-09-30T20:43:13.997170,3358400,-1586,195,-733,5002,1318,628,390,380,-88
1373,1,2022-09-30T20:43:14.004452,3358407,-1586,195,-733,5002,1318,628,390,380,-88
1374,1,2022-09-30T20:43:14.011148,3358414,-1586,195,-733,5002,1318,628,390,380,-88
1375,1,2022-09-30T20:43:14.018414,3358422,-1586,195,-743,5316,1357,581,390,380,-88
1376,1,2022-09-30T20:43:14.030587,3358434,-1586,195,-743,5316,1357,581,390,380,-88
1377,1,2022-09-30T20:43:14.038228,3358441,-1588,199,-745,5584,1413,555,390,380,-88
1378,1,2022-09-30T20:43:14.048667,3358450,-1588,199,-745,5584,1413,555,390,380,-88
1379,1,2022-09-30T20:43:14.057684,3358460,-1586,207,-749,5835,1478,571,390,380,-88
1380,1,2022-09-30T20:43:14.064834,3358469,-1586,207,-749,5835,1478,571,390,380,-88
1381,1,2022-09-30T20:43:14.075813,3358478,-1594,212,-750,6054,1525,611,390,380,-88
1382,1,2022-09-30T20:43:14.087285,3358491,-1594,212,-750,6054,1525,611,390,380,-88
1383,1,2022-09-30T20:43:14.094470,3358497,-1594,212,-750,6054,1525,611,390,380,-88
1384,1,2022-09-30T20:43:14.109967,3358513,-1596,212,-752,6241,1561,677,390,380,-88
1385,1,2022-09-30T20:43:14.117491,3358521,-1595,211,-754,6439,1584,739,378,376,-82
1386,1,2022-09-30T20:43:14.136498,3358539,-1586,207,-764,6651,1638,809,378,376,-82
1387,1,2022-09-30T20:43:14.147302,3358548,-1586,207,-764,6651,1638,809,378,376,-82
1388,1,2022-09-30T20:43:14.156462,3358560,-1587,205,-765,6891,1706,873,378,376,-82
1389,1,2022-09-30T20:43:14.164054,3358567,-1587,205,-765,6891,1706,873,378,376,-82
1390,1,2022-09-30T20:43:14.172706,3358573,-1587,205,-765,6891,1706,873,378,376,-82
1391,1,2022-09-30T20:43:14.181054,3358584,-1602,210,-770,7154,1778,902,378,376,-82
1392,1,2022-09-30T20:43:14.189170,3358593,-1602,210,-770,7154,1778,902,378,376,-82
1393,1,2022-09-30T20:43:14.197007,3358600,-1597,217,-768,7404,1790,912,378,376,-82
1394,1,2022-09-30T20:43:14.206493,3358610,-1597,217,-768,7404,1790,912,378,376,-82
1395,1,2022-09-30T20:43:14.214938,3358618,-1580,212,-777,7638,1816,957,378,376,-82
1396,1,2022-09-30T20:43:14.227947,3358631,-1580,212,-777,7638,1816,957,378,376,-82
1397,1,2022-09-30T20:43:14.233256,3358637,-1580,212,-777,7638,1816,957,378,376,-82
1398,1,2022-09-30T20:43:14.242016,3358645,-1592,201,-784,7887,1923,949,380,374,-60
1399,1,2022-09-30T20:43:14.254193,3358657,-1592,201,-784,7887,1923,949,380,374,-60
1400,1,2022-09-30T20:43:14.260384,3358662,-1594,194,-790,8155,2046,893,380,374,-60
1401,1,2022-09-30T20:43:14.267508,3358670,-1594,194,-790,8155,2046,893,380,374,-60
1402,1,2022-09-30T20:43:14.277928,3358682,-1586,187,-797,8448,2135,849,380,374,-60
1403,1,2022-09-30T20:43:14.288729,3358692,-1586,187,-797,8448,2135,849,380,374,-60
1404,1,2022-09-30T20:43:14.297666,3358699,-1584,193,-797,8748,2217,902,380,374,-60
1405,1,2022-09-30T20:43:14.308400,3358711,-1584,193,-797,8748,2217,902,380,374,-60
1406,1,2022-09-30T20:43:14.315638,3358718,-1594,207,-809,9042,2279,1059,380,374,-60
1407,1,2022-09-30T20:43:14.324582,3358725,-1594,207,-809,9042,2279,1059,380,374,-60
1408,1,2022-09-30T20:43:14.330783,3358734,-1594,207,-809,9042,2279,1059,380,374,-60
1409,1,2022-09-30T20:43:14.338153,3358741,-1591,225,-812,9266,2288,1324,380,374,-60
1410,1,2022-09-30T20:43:14.347175,3358750,-1591,225,-812,9266,2288,1324,380,374,-60
1411,1,2022-09-30T20:43:14.356353,3358759,-1591,243,-818,9449,2287,1589,373,377,-35
1412,1,2022-09-30T20:43:14.365447,3358769,-1591,243,-818,9449,2287,1589,373,377,-35
1413,1,2022-09-30T20:43:14.372175,3358775,-1591,243,-818,9449,2287,1589,373,377,-35
1414,1,2022-09-30T20:43:14.382925,3358786,-1591,261,-819,9560,2290,1813,373,377,-35
1415,1,2022-09-30T20:43:14.391005,3358794,-1591,261,-819,9560,2290,1813,373,377,-35
1416,1,2022-09-30T20:43:14.400631,3358802,-1596,279,-821,9672,2265,1931,373,377,-35
1417,1,2022-09-30T20:43:14.407866,3358811,-1596,279,-821,9672,2265,1931,373,377,-35
1418,1,2022-09-30T20:43:14.413203,3358817,-1596,279,-821,9672,2265,1931,373,377,-35
1419,1,2022-09-30T20:43:14.419650,3358822,-1600,298,-826,9746,2237,1973,373,377,-35
1420,1,2022-09-30T20:43:14.428384,3358831,-1600,298,-826,9746,2237,1973,373,377,-35
1421,1,2022-09-30T20:43:14.435454,3358838,-1607,318,-830,9794,2185,1951,373,377,-35
1422,1,2022-09-30T20:43:14.442363,3358845,-1607,318,-830,9794,2185,1951,373,377,-35
1423,1,2022-09-30T20:43:14.449647,3358853,-1607,318,-830,9794,2185,1951,373,377,-35
1424,1,2022-09-30T20:43:14.456715,3358860,-1616,331,-828,9842,2128,1932,373,377,-35
1425,1,2022-09-30T20:43:14.464144,3358867,-1616,331,-828,9842,2128,1932,373,377,-35
1426,1,2022-09-30T20:43:14.470945,3358874,-1616,331,-828,9842,2128,1932,373,377,-35
1427,1,2022-09-30T20:43:14.480452,3358883,-1618,342,-821,9894,2032,1901,368,390,-8
1428,1,2022-09-30T20:43:14.487591,3358891,-1618,342,-821,9894,2032,1901,368,390,-8
1429,1,2022-09-30T20:43:14.495660,3358898,-1614,354,-818,9937,1946,1864,368,390,-8
1430,1,2022-09-30T20:43:14.506316,3358910,-1614,354,-818,9937,1946,1864,368,390,-8
1431,1,2022-09-30T20:43:14.514154,3358917,-1614,354,-818,9937,1946,1864,368,390,-8
1432,1,2022-09-30T20:43:14.521997,3358923,-1616,364,-821,9995,1850,1827,368,390,-8
1433,1,2022-09-30T20:43:14.531002,3358935,-1616,364,-821,9995,1850,1827,368,390,-8
1434,1,2022-09-30T20:43:14.538120,3358941,-1620,368,-815,10053,1785,1785,368,390,-8
1435,1,2022-09-30T20:43:14.548197,3358948,-1620,368,-815,10053,1785,1785,368,390,-8
1436,1,2022-09-30T20:43:14.554805,3358958,-1625,370,-811,10096,1730,1693,368,390,-8
1437,1,2022-09-30T20:43:14.564872,3358968,-1625,370,-811,10096,1730,1693,368,390,-8
1438,1,2022-09-30T20:43:14.574218,3358978,-1625,370,-811,10096,1730,1693,368,390,-8
1439,1,2022-09-30T20:43:14.581520,3358985,-1631,372,-817,10136,1700,1559,368,390,-8
1440,1,2022-09-30T20:43:14.588562,3358992,-1631,372,-817,10136,1700,1559,368,390,-8
1441,1,2022-09-30T20:43:14.596205,3358999,-1638,377,-811,10190,1648,1439,368,390,-8
1442,1,2022-09-30T20:43:14.607362,3359010,-1638,377,-811,10190,1648,1439,368,390,-8
1443,1,2022-09-30T20:43:14.620152,3359023,-1632,380,-804,10242,1591,1375,339,397,3
