,imu,server_time,arduino_time,ax,ay,az,gx,gy,gz,mx,my,mz
0,0,2022-09-30T20:43:02.667988,3347069,-1466,-1,836,-1360,-596,-459,174,410,-194
1,0,2022-09-30T20:43:02.882134,3347283,-1465,6,833,-1558,-774,-191,170,398,-198
2,0,2022-09-30T20:43:02.891661,3347293,-1465,6,833,-1558,-774,-191,170,398,-198
3,0,2022-09-30T20:43:02.898071,3347300,-1467,15,843,-1277,-601,-155,170,398,-198
4,0,2022-09-30T20:43:02.905439,3347307,-1467,15,843,-1277,-601,-155,170,398,-198
5,0,2022-09-30T20:43:02.911611,3347313,-1467,15,843,-1277,-601,-155,170,398,-198
6,0,2022-09-30T20:43:02.917862,3347319,-1472,7,841,-845,-484,-134,170,398,-198
7,0,2022-09-30T20:43:02.925561,3347328,-1472,7,841,-845,-484,-134,170,398,-198
8,0,2022-09-30T20:43:02.931405,3347334,-1472,7,841,-845,-484,-134,170,398,-198
9,0,2022-09-30T20:43:02.938380,3347341,-1472,0,833,-673,-512,-148,170,398,-198
10,0,2022-09-30T20:43:02.946381,3347348,-1472,0,833,-673,-512,-148,170,398,-198
11,0,2022-09-30T20:43:02.952640,3347354,-1472,7,829,-736,-443,-311,170,398,-198
12,0,2022-09-30T20:43:02.958479,3347360,-1472,7,829,-736,-443,-311,170,398,-198
13,0,2022-09-30T20:43:02.964568,3347366,-1472,7,829,-736,-443,-311,170,398,-198
14,0,2022-09-30T20:43:02.971461,3347373,-1472,7,829,-736,-443,-311,170,398,-198
15,0,2022-09-30T20:43:02.977399,3347380,-1469,15,830,-1073,-437,-481,170,398,-198
16,0,2022-09-30T20:43:02.984928,3347387,-1469,15,830,-1073,-437,-481,170,398,-198
17,0,2022-09-30T20:43:02.991516,3347393,-1469,15,830,-1073,-437,-481,170,398,-198
18,0,2022-09-30T20:43:02.999611,3347402,-1472,0,832,-1514,-581,-497,172,404,-196
19,0,2022-09-30T20:43:03.006617,3347408,-1472,0,832,-1514,-581,-497,172,404,-196
20,0,2022-09-30T20:43:03.012299,3347415,-1472,0,832,-1514,-581,-497,172,404,-196
21,0,2022-09-30T20:43:03.021032,3347423,-1474,-14,839,-1687,-694,-430,172,404,-196
22,0,2022-09-30T20:43:03.028566,3347431,-1474,-14,839,-1687,-694,-430,172,404,-196
23,0,2022-09-30T20:43:03.034452,3347436,-1477,-8,837,-1451,-642,-409,172,404,-196
24,0,2022-09-30T20:43:03.042204,3347444,-1477,-8,837,-1451,-642,-409,172,404,-196
25,0,2022-09-30T20:43:03.048481,3347450,-1477,-8,837,-1451,-642,-409,172,404,-196
26,0,2022-09-30T20:43:03.054631,3347457,-1466,16,840,-1053,-611,-316,172,404,-196
27,0,2022-09-30T20:43:03.062749,3347465,-1466,16,840,-1053,-611,-316,172,404,-196
28,0,2022-09-30T20:43:03.071133,3347473,-1466,16,840,-1053,-611,-316,172,404,-196
29,0,2022-09-30T20:43:03.076766,3347479,-1467,17,830,-577,-518,-275,172,404,-196
30,0,2022-09-30T20:43:03.082880,3347485,-1467,17,830,-577,-518,-275,172,404,-196
31,0,2022-09-30T20:43:03.089456,3347491,-1467,17,830,-577,-518,-275,172,404,-196
32,0,2022-09-30T20:43:03.095616,3347497,-1467,2,817,-473,-450,-274,172,404,-196
33,0,2022-09-30T20:43:03.104842,3347507,-1467,2,817,-473,-450,-274,172,404,-196
34,0,2022-09-30T20:43:03.110575,3347513,-1467,2,817,-473,-450,-274,172,404,-196
35,0,2022-09-30T20:43:03.116857,3347519,-1468,10,826,-879,-432,-249,172,404,-196
36,0,2022-09-30T20:43:03.124902,3347527,-1468,10,826,-879,-432,-249,172,404,-196
37,0,2022-09-30T20:43:03.131051,3347533,-1468,10,826,-879,-432,-249,172,404,-196
38,0,2022-09-30T20:43:03.139218,3347540,-1479,7,848,-1437,-541,-250,166,404,-192
39,0,2022-09-30T20:43:03.145057,3347548,-1479,7,848,-1437,-541,-250,166,404,-192
40,0,2022-09-30T20:43:03.151573,3347554,-1479,7,848,-1437,-541,-250,166,404,-192
41,0,2022-09-30T20:43:03.157729,3347560,-1480,-8,840,-1682,-745,-347,166,404,-192
42,0,2022-09-30T20:43:03.165848,3347567,-1480,-8,840,-1682,-745,-347,166,404,-192
43,0,2022-09-30T20:43:03.172459,3347574,-1480,-8,840,-1682,-745,-347,166,404,-192
44,0,2022-09-30T20:43:03.178275,3347580,-1473,-8,838,-1292,-627,-468,166,404,-192
45,0,2022-09-30T20:43:03.185339,3347587,-1473,-8,838,-1292,-627,-468,166,404,-192
46,0,2022-09-30T20:43:03.191728,3347594,-1473,-8,838,-1292,-627,-468,166,404,-192
47,0,2022-09-30T20:43:03.197773,3347600,-1475,1,839,-662,-468,-496,166,404,-192
48,0,2022-09-30T20:43:03.205198,3347607,-1475,1,839,-662,-468,-496,166,404,-192
49,0,2022-09-30T20:43:03.211465,3347613,-1475,1,839,-662,-468,-496,166,404,-192
50,0,2022-09-30T20:43:03.217259,3347619,-1471,7,817,-477,-530,-395,166,404,-192
51,0,2022-09-30T20:43:03.225181,3347627,-1471,7,817,-477,-530,-395,166,404,-192
52,0,2022-09-30T20:43:03.235673,3347637,-1465,7,815,-682,-558,-318,166,404,-192
53,0,2022-09-30T20:43:03.247193,3347649,-1465,7,815,-682,-558,-318,166,404,-192
54,0,2022-09-30T20:43:03.254149,3347656,-1468,14,833,-1124,-545,-332,169,399,-201
55,0,2022-09-30T20:43:03.264421,3347666,-1468,14,833,-1124,-545,-332,169,399,-201
56,0,2022-09-30T20:43:03.273746,3347676,-1470,3,850,-1546,-659,-287,169,399,-201
57,0,2022-09-30T20:43:03.284465,3347686,-1470,3,850,-1546,-659,-287,169,399,-201
58,0,2022-09-30T20:43:03.291331,3347693,-1470,3,850,-1546,-659,-287,169,399,-201
59,0,2022-09-30T20:43:03.299595,3347701,-1470,-9,838,-1371,-705,-249,169,399,-201
60,0,2022-09-30T20:43:03.307824,3347709,-1470,-9,838,-1371,-705,-249,169,399,-201
61,0,2022-09-30T20:43:03.314774,3347717,-1469,-7,833,-778,-558,-264,169,399,-201
62,0,2022-09-30T20:43:03.324879,3347727,-1469,-7,833,-778,-558,-264,169,399,-201
63,0,2022-09-30T20:43:03.331480,3347733,-1469,-7,833,-778,-558,-264,169,399,-201
64,0,2022-09-30T20:43:03.338066,3347740,-1467,13,835,-467,-461,-313,169,399,-201
65,0,2022-09-30T20:43:03.346911,3347749,-1467,13,835,-467,-461,-313,169,399,-201
66,0,2022-09-30T20:43:03.352661,3347755,-1467,13,835,-467,-461,-313,169,399,-201
67,0,2022-09-30T20:43:03.358522,3347761,-1466,13,822,-557,-475,-358,169,399,-201
68,0,2022-09-30T20:43:03.366316,3347768,-1466,13,822,-557,-475,-358,169,399,-201
69,0,2022-09-30T20:43:03.372789,3347775,-1466,13,822,-557,-475,-358,169,399,-201
70,0,2022-09-30T20:43:03.397171,3347780,-1470,4,825,-963,-506,-376,169,399,-201
71,0,2022-09-30T20:43:03.403153,3347805,-1468,9,844,-1490,-634,-282,169,403,-191
72,0,2022-09-30T20:43:03.408770,3347811,-1468,9,844,-1490,-634,-282,169,403,-191
73,0,2022-09-30T20:43:03.414870,3347817,-1477,-8,843,-1472,-639,-283,169,403,-191
74,0,2022-09-30T20:43:03.420923,3347823,-1477,-8,843,-1472,-639,-283,169,403,-191
75,0,2022-09-30T20:43:03.426415,3347828,-1477,-8,843,-1472,-639,-283,169,403,-191
76,0,2022-09-30T20:43:03.432480,3347834,-1477,-8,843,-1472,-639,-283,169,403,-191
77,0,2022-09-30T20:43:03.440559,3347843,-1477,-8,843,-1472,-639,-283,169,403,-191
78,0,2022-09-30T20:43:03.447224,3347849,-1477,-8,843,-1472,-639,-283,169,403,-191
79,0,2022-09-30T20:43:03.452993,3347855,-1470,7,832,-136,-418,-217,169,403,-191
80,0,2022-09-30T20:43:03.462598,3347864,-1470,7,832,-136,-418,-217,169,403,-191
81,0,2022-09-30T20:43:03.468778,3347870,-1470,7,832,-136,-418,-217,169,403,-191
82,0,2022-09-30T20:43:03.474650,3347877,-1471,21,823,75,-349,-158,169,403,-191
83,0,2022-09-30T20:43:03.482979,3347886,-1471,21,823,75,-349,-158,169,403,-191
84,0,2022-09-30T20:43:03.488768,3347891,-1471,21,823,75,-349,-158,169,403,-191
85,0,2022-09-30T20:43:03.495091,3347897,-1478,14,814,-379,-298,-207,169,403,-191
86,0,2022-09-30T20:43:03.504354,3347906,-1478,14,814,-379,-298,-207,169,403,-191
87,0,2022-09-30T20:43:03.510240,3347912,-1478,14,814,-379,-298,-207,169,403,-191
88,0,2022-09-30T20:43:03.516212,3347918,-1477,21,839,-1196,-565,-356,176,396,-190
89,0,2022-09-30T20:43:03.531176,3347928,-1477,21,839,-1196,-565,-356,176,396,-190
90,0,2022-09-30T20:43:03.537643,3347940,-1471,10,841,-1743,-821,-404,176,396,-190
91,0,2022-09-30T20:43:03.547049,3347949,-1471,10,841,-1743,-821,-404,176,396,-190
92,0,2022-09-30T20:43:03.553134,3347955,-1471,10,841,-1743,-821,-404,176,396,-190
93,0,2022-09-30T20:43:03.559254,3347961,-1474,0,836,-1682,-760,-406,176,396,-190
94,0,2022-09-30T20:43:03.565341,3347968,-1474,0,836,-1682,-760,-406,176,396,-190
95,0,2022-09-30T20:43:03.571116,3347974,-1474,0,836,-1682,-760,-406,176,396,-190
96,0,2022-09-30T20:43:03.577127,3347979,-1471,8,841,-1152,-548,-397,176,396,-190
97,0,2022-09-30T20:43:03.584295,3347987,-1471,8,841,-1152,-548,-397,176,396,-190
98,0,2022-09-30T20:43:03.590487,3347992,-1471,8,841,-1152,-548,-397,176,396,-190
99,0,2022-09-30T20:43:03.596796,3347999,-1476,12,835,-696,-463,-391,176,396,-190
100,0,2022-09-30T20:43:03.602905,3348004,-1476,12,835,-696,-463,-391,176,396,-190
101,0,2022-09-30T20:43:03.609168,3348012,-1476,12,835,-696,-463,-391,176,396,-190
102,0,2022-09-30T20:43:03.615575,3348018,-1467,12,824,-740,-586,-355,176,396,-190
103,0,2022-09-30T20:43:03.621393,3348024,-1467,12,824,-740,-586,-355,176,396,-190
104,0,2022-09-30T20:43:03.627429,3348029,-1467,12,824,-740,-586,-355,176,396,-190
105,0,2022-09-30T20:43:03.633646,3348035,-1469,14,829,-1050,-542,-394,176,396,-190
106,0,2022-09-30T20:43:03.643013,3348044,-1469,14,829,-1050,-542,-394,175,409,-193
107,0,2022-09-30T20:43:03.649473,3348051,-1469,14,829,-1050,-542,-394,175,409,-193
108,0,2022-09-30T20:43:03.655084,3348058,-1467,10,831,-1456,-592,-320,175,409,-193
109,0,2022-09-30T20:43:03.665109,3348067,-1467,10,831,-1456,-592,-320,175,409,-193
110,0,2022-09-30T20:43:03.672283,3348074,-1467,10,831,-1456,-592,-320,175,409,-193
111,0,2022-09-30T20:43:03.680373,3348082,-1475,0,842,-1599,-681,-160,175,409,-193
112,0,2022-09-30T20:43:03.687332,3348089,-1475,0,842,-1599,-681,-160,175,409,-193
113,0,2022-09-30T20:43:03.693262,3348096,-1475,0,842,-1599,-681,-160,175,409,-193
114,0,2022-09-30T20:43:03.699023,3348101,-1477,0,843,-1323,-637,-162,175,409,-193
115,0,2022-09-30T20:43:03.706689,3348109,-1477,0,843,-1323,-637,-162,175,409,-193
116,0,2022-09-30T20:43:03.712792,3348115,-1477,0,843,-1323,-637,-162,175,409,-193
117,0,2022-09-30T20:43:03.719145,3348121,-1473,10,848,-849,-505,-347,175,409,-193
118,0,2022-09-30T20:43:03.727272,3348129,-1473,10,848,-849,-505,-347,175,409,-193
119,0,2022-09-30T20:43:03.733067,3348135,-1473,10,848,-849,-505,-347,175,409,-193
120,0,2022-09-30T20:43:03.739125,3348141,-1458,12,829,-554,-561,-419,175,409,-193
121,0,2022-09-30T20:43:03.745232,3348147,-1458,12,829,-554,-561,-419,175,409,-193
122,0,2022-09-30T20:43:03.751553,3348154,-1458,12,829,-554,-561,-419,175,409,-193
123,0,2022-09-30T20:43:03.758967,3348161,-1462,-2,809,-630,-493,-305,175,409,-193
124,0,2022-09-30T20:43:03.767212,3348169,-1462,-2,809,-630,-493,-305,175,409,-193
125,0,2022-09-30T20:43:03.773741,3348175,-1474,8,828,-1232,-375,-264,175,409,-193
126,0,2022-09-30T20:43:03.783434,3348186,-1474,8,828,-1232,-375,-264,166,402,-196
127,0,2022-09-30T20:43:03.790798,3348192,-1474,8,828,-1232,-375,-264,166,402,-196
128,0,2022-09-30T20:43:03.798180,3348200,-1479,28,841,-1849,-645,-225,166,402,-196
129,0,2022-09-30T20:43:03.806888,3348209,-1479,28,841,-1849,-645,-225,166,402,-196
130,0,2022-09-30T20:43:03.813248,3348215,-1479,28,841,-1849,-645,-225,166,402,-196
131,0,2022-09-30T20:43:03.822073,3348225,-1476,3,842,-1834,-877,-247,166,402,-196
132,0,2022-09-30T20:43:03.829623,3348232,-1476,3,842,-1834,-877,-247,166,402,-196
133,0,2022-09-30T20:43:03.835615,3348238,-1470,-7,830,-1308,-743,-415,166,402,-196
134,0,2022-09-30T20:43:03.841961,3348244,-1470,-7,830,-1308,-743,-415,166,402,-196
135,0,2022-09-30T20:43:03.848391,3348250,-1470,-7,830,-1308,-743,-415,166,402,-196
136,0,2022-09-30T20:43:03.854928,3348257,-1470,-7,830,-1308,-743,-415,166,402,-196
137,0,2022-09-30T20:43:03.861532,3348263,-1470,-7,830,-1308,-743,-415,166,402,-196
138,0,2022-09-30T20:43:03.867498,3348270,-1470,-7,830,-1308,-743,-415,166,402,-196
139,0,2022-09-30T20:43:03.873735,3348276,-1463,11,832,-931,-614,-440,166,402,-196
140,0,2022-09-30T20:43:03.879300,3348281,-1463,11,832,-931,-614,-440,166,402,-196
141,0,2022-09-30T20:43:03.885649,3348288,-1463,11,832,-931,-614,-440,166,402,-196
142,0,2022-09-30T20:43:03.892732,3348294,-1463,11,832,-931,-614,-440,166,402,-196
143,0,2022-09-30T20:43:03.899567,3348301,-1460,6,825,-862,-595,-298,161,399,-197
144,0,2022-09-30T20:43:03.906743,3348310,-1460,6,825,-862,-595,-298,161,399,-197
145,0,2022-09-30T20:43:03.913079,3348315,-1460,6,825,-862,-595,-298,161,399,-197
146,0,2022-09-30T20:43:03.919288,3348321,-1470,-2,827,-870,-465,-226,161,399,-197
147,0,2022-09-30T20:43:03.925285,3348327,-1470,-2,827,-870,-465,-226,161,399,-197
148,0,2022-09-30T20:43:03.952433,3348333,-1470,-2,827,-870,-465,-226,161,399,-197
149,0,2022-09-30T20:43:03.958647,3348361,-1473,7,848,-1402,-684,-215,161,399,-197
150,0,2022-09-30T20:43:03.964422,3348366,-1473,7,848,-1402,-684,-215,161,399,-197
151,0,2022-09-30T20:43:03.970647,3348373,-1473,7,848,-1402,-684,-215,161,399,-197
152,0,2022-09-30T20:43:03.976982,3348379,-1471,5,849,-1287,-625,-323,161,399,-197
153,0,2022-09-30T20:43:03.984893,3348387,-1471,5,849,-1287,-625,-323,161,399,-197
154,0,2022-09-30T20:43:03.991491,3348393,-1471,5,849,-1287,-625,-323,161,399,-197
155,0,2022-09-30T20:43:03.999871,3348402,-1465,0,831,-993,-547,-397,161,399,-197
156,0,2022-09-30T20:43:04.007340,3348410,-1465,0,831,-993,-547,-397,161,399,-197
157,0,2022-09-30T20:43:04.013759,3348415,-1465,0,831,-993,-547,-397,161,399,-197
158,0,2022-09-30T20:43:04.019707,3348421,-1467,-3,829,-744,-422,-410,161,399,-197
159,0,2022-09-30T20:43:04.027636,3348429,-1467,-3,829,-744,-422,-410,161,399,-197
160,0,2022-09-30T20:43:04.034094,3348436,-1467,-2,834,-809,-508,-291,175,403,-191
161,0,2022-09-30T20:43:04.039744,3348442,-1467,-2,834,-809,-508,-291,175,403,-191
162,0,2022-09-30T20:43:04.045353,3348448,-1467,-2,834,-809,-508,-291,175,403,-191
163,0,2022-09-30T20:43:04.051757,3348454,-1467,-2,834,-809,-508,-291,175,403,-191
164,0,2022-09-30T20:43:04.057761,3348460,-1467,-2,834,-809,-508,-291,175,403,-191
165,0,2022-09-30T20:43:04.063534,3348466,-1467,-2,834,-809,-508,-291,175,403,-191
166,0,2022-09-30T20:43:04.069536,3348471,-1467,-2,834,-809,-508,-291,175,403,-191
167,0,2022-09-30T20:43:04.075628,3348477,-1468,12,830,-1067,-534,-115,175,403,-191
168,0,2022-09-30T20:43:04.141613,3348543,-1471,-1,834,-1023,-614,-277,175,403,-191
169,0,2022-09-30T20:43:04.148075,3348550,-1471,-1,834,-1023,-614,-277,175,403,-191
170,0,2022-09-30T20:43:04.155630,3348556,-1468,11,832,-1023,-529,-344,167,407,-203
171,0,2022-09-30T20:43:04.162500,3348564,-1468,11,832,-1023,-529,-344,167,407,-203
172,0,2022-09-30T20:43:04.170189,3348572,-1468,11,832,-1023,-529,-344,167,407,-203
173,0,2022-09-30T20:43:04.176644,3348579,-1470,16,833,-1090,-545,-366,167,407,-203
174,0,2022-09-30T20:43:04.187009,3348589,-1470,16,833,-1090,-545,-366,167,407,-203
175,0,2022-09-30T20:43:04.193806,3348595,-1470,16,833,-1090,-545,-366,167,407,-203
176,0,2022-09-30T20:43:04.200220,3348602,-1469,9,836,-1082,-570,-284,167,407,-203
177,0,2022-09-30T20:43:04.206884,3348609,-1469,9,836,-1082,-570,-284,167,407,-203
178,0,2022-09-30T20:43:04.213272,3348616,-1469,9,836,-1082,-570,-284,167,407,-203
179,0,2022-09-30T20:43:04.223770,3348626,-1474,3,835,-1037,-577,-256,167,407,-203
180,0,2022-09-30T20:43:04.230201,3348632,-1474,3,835,-1037,-577,-256,167,407,-203
181,0,2022-09-30T20:43:04.236358,3348638,-1476,3,834,-1030,-577,-282,167,407,-203
182,0,2022-09-30T20:43:04.245868,3348648,-1476,3,834,-1030,-577,-282,167,407,-203
183,0,2022-09-30T20:43:04.251635,3348654,-1476,3,834,-1030,-577,-282,167,407,-203
184,0,2022-09-30T20:43:04.257944,3348660,-1470,8,830,-1062,-604,-329,167,407,-203
185,0,2022-09-30T20:43:04.269519,3348669,-1470,8,830,-1062,-604,-329,167,407,-203
186,0,2022-09-30T20:43:04.275701,3348677,-1470,12,827,-1062,-602,-323,167,407,-203
187,0,2022-09-30T20:43:04.285346,3348687,-1470,12,827,-1062,-602,-323,167,407,-203
188,0,2022-09-30T20:43:04.295850,3348698,-1470,11,840,-1091,-543,-256,165,401,-187
189,0,2022-09-30T20:43:04.301870,3348704,-1470,11,840,-1091,-543,-256,165,401,-187
190,0,2022-09-30T20:43:04.307972,3348710,-1470,11,840,-1091,-543,-256,165,401,-187
191,0,2022-09-30T20:43:04.315051,3348716,-1473,9,844,-1124,-543,-299,165,401,-187
192,0,2022-09-30T20:43:04.321423,3348723,-1473,9,844,-1124,-543,-299,165,401,-187
193,0,2022-09-30T20:43:04.327534,3348729,-1473,9,844,-1124,-543,-299,165,401,-187
194,0,2022-09-30T20:43:04.333617,3348736,-1473,9,844,-1124,-543,-299,165,401,-187
195,0,2022-09-30T20:43:04.340009,3348742,-1470,8,834,-1092,-632,-393,165,401,-187
196,0,2022-09-30T20:43:04.345897,3348748,-1470,8,834,-1092,-632,-393,165,401,-187
197,0,2022-09-30T20:43:04.352476,3348754,-1470,8,834,-1092,-632,-393,165,401,-187
198,0,2022-09-30T20:43:04.358480,3348760,-1470,-10,830,-1106,-601,-463,165,401,-187
199,0,2022-09-30T20:43:04.364583,3348766,-1470,-10,830,-1106,-601,-463,165,401,-187
200,0,2022-09-30T20:43:04.370577,3348772,-1470,-10,830,-1106,-601,-463,165,401,-187
201,0,2022-09-30T20:43:04.376612,3348779,-1467,5,834,-1236,-580,-424,165,401,-187
202,0,2022-09-30T20:43:04.381832,3348784,-1467,5,834,-1236,-580,-424,165,401,-187
203,0,2022-09-30T20:43:04.387482,3348790,-1467,5,834,-1236,-580,-424,165,401,-187
204,0,2022-09-30T20:43:04.394324,3348796,-1467,5,834,-1236,-580,-424,165,401,-187
205,0,2022-09-30T20:43:04.400136,3348802,-1467,7,841,-1242,-528,-295,165,401,-187
206,0,2022-09-30T20:43:04.406342,3348808,-1467,7,841,-1242,-528,-295,165,401,-187
207,0,2022-09-30T20:43:04.412705,3348814,-1467,7,841,-1242,-528,-295,165,401,-187
208,0,2022-09-30T20:43:04.418641,3348820,-1469,4,836,-1163,-653,-172,161,403,-191
209,0,2022-09-30T20:43:04.424797,3348827,-1469,4,836,-1163,-653,-172,161,403,-191
210,0,2022-09-30T20:43:04.430843,3348833,-1469,4,836,-1163,-653,-172,161,403,-191
211,0,2022-09-30T20:43:04.438907,3348841,-1468,7,832,-976,-527,-239,161,403,-191
212,0,2022-09-30T20:43:04.447120,3348849,-1468,7,832,-976,-527,-239,161,403,-191
213,0,2022-09-30T20:43:04.452430,3348854,-1468,7,832,-976,-527,-239,161,403,-191
214,0,2022-09-30T20:43:04.460277,3348862,-1468,9,840,-987,-481,-305,161,403,-191
215,0,2022-09-30T20:43:04.466853,3348869,-1468,9,840,-987,-481,-305,161,403,-191
216,0,2022-09-30T20:43:04.472295,3348875,-1468,9,840,-987,-481,-305,161,403,-191
217,0,2022-09-30T20:43:04.478209,3348881,-1463,5,836,-1182,-597,-273,161,403,-191
218,0,2022-09-30T20:43:04.483913,3348886,-1463,5,836,-1182,-597,-273,161,403,-191
219,0,2022-09-30T20:43:04.489485,3348891,-1463,5,836,-1182,-597,-273,161,403,-191
220,0,2022-09-30T20:43:04.495981,3348898,-1471,-3,841,-1209,-521,-271,161,403,-191
221,0,2022-09-30T20:43:04.505343,3348908,-1471,-3,841,-1209,-521,-271,161,403,-191
222,0,2022-09-30T20:43:04.511191,3348914,-1471,-3,841,-1209,-521,-271,161,403,-191
223,0,2022-09-30T20:43:04.520864,3348923,-1473,-3,833,-1206,-512,-342,161,403,-191
224,0,2022-09-30T20:43:04.528069,3348929,-1473,-3,833,-1206,-512,-342,161,403,-191
225,0,2022-09-30T20:43:04.533940,3348936,-1473,-3,833,-1206,-512,-342,161,403,-191
226,0,2022-09-30T20:43:04.540291,3348942,-1468,1,835,-1165,-522,-433,175,403,-203
227,0,2022-09-30T20:43:04.548826,3348951,-1468,1,835,-1165,-522,-433,175,403,-203
228,0,2022-09-30T20:43:04.554955,3348957,-1467,10,834,-1160,-555,-480,175,403,-203
229,0,2022-09-30T20:43:04.562879,3348965,-1467,10,834,-1160,-555,-480,175,403,-203
230,0,2022-09-30T20:43:04.569684,3348972,-1467,10,834,-1160,-555,-480,175,403,-203
231,0,2022-09-30T20:43:04.575390,3348977,-1465,3,824,-1249,-567,-388,175,403,-203
232,0,2022-09-30T20:43:04.585778,3348988,-1465,3,824,-1249,-567,-388,175,403,-203
233,0,2022-09-30T20:43:04.592244,3348994,-1465,3,824,-1249,-567,-388,175,403,-203
234,0,2022-09-30T20:43:04.598349,3349001,-1471,-2,830,-1365,-538,-249,175,403,-203
235,0,2022-09-30T20:43:04.604550,3349007,-1471,-2,830,-1365,-538,-249,175,403,-203
236,0,2022-09-30T20:43:04.610274,3349012,-1471,-2,830,-1365,-538,-249,175,403,-203
237,0,2022-09-30T20:43:04.616165,3349018,-1474,10,830,-1412,-549,-238,175,403,-203
238,0,2022-09-30T20:43:04.626644,3349028,-1474,10,830,-1412,-549,-238,175,403,-203
239,0,2022-09-30T20:43:04.633748,3349036,-1474,10,830,-1412,-549,-238,175,403,-203
240,0,2022-09-30T20:43:04.639817,3349042,-1476,-3,837,-1308,-595,-300,175,403,-203
241,0,2022-09-30T20:43:04.645527,3349048,-1476,-3,837,-1308,-595,-300,175,403,-203
242,0,2022-09-30T20:43:04.651372,3349054,-1476,-3,837,-1308,-595,-300,175,403,-203
243,0,2022-09-30T20:43:04.657088,3349059,-1474,-21,832,-1186,-669,-371,175,403,-203
244,0,2022-09-30T20:43:04.664116,3349066,-1474,-21,832,-1186,-669,-371,175,403,-203
245,0,2022-09-30T20:43:04.670464,3349072,-1474,-21,832,-1186,-669,-371,175,403,-203
246,0,2022-09-30T20:43:04.676431,3349079,-1468,-8,837,-1133,-628,-436,175,407,-193
247,0,2022-09-30T20:43:04.681893,3349084,-1468,-8,837,-1133,-628,-436,175,407,-193
248,0,2022-09-30T20:43:04.687375,3349090,-1468,-8,837,-1133,-628,-436,175,407,-193
249,0,2022-09-30T20:43:04.693452,3349095,-1468,-8,837,-1133,-628,-436,175,407,-193
250,0,2022-09-30T20:43:04.698827,3349101,-1464,0,843,-1121,-572,-419,175,407,-193
251,0,2022-09-30T20:43:04.704331,3349106,-1464,0,843,-1121,-572,-419,175,407,-193
252,0,2022-09-30T20:43:04.710421,3349112,-1464,0,843,-1121,-572,-419,175,407,-193
253,0,2022-09-30T20:43:04.716682,3349118,-1463,2,835,-1223,-667,-370,175,407,-193
254,0,2022-09-30T20:43:04.722618,3349125,-1463,2,835,-1223,-667,-370,175,407,-193
255,0,2022-09-30T20:43:04.728095,3349131,-1463,2,835,-1223,-667,-370,175,407,-193
256,0,2022-09-30T20:43:04.733391,3349136,-1463,2,835,-1223,-667,-370,175,407,-193
257,0,2022-09-30T20:43:04.739479,3349142,-1463,-4,830,-1225,-646,-290,175,407,-193
258,0,2022-09-30T20:43:04.745541,3349147,-1463,-4,830,-1225,-646,-290,175,407,-193
259,0,2022-09-30T20:43:04.751226,3349153,-1463,-4,830,-1225,-646,-290,175,407,-193
260,0,2022-09-30T20:43:04.757211,3349159,-1470,-7,836,-1053,-501,-270,175,407,-193
261,0,2022-09-30T20:43:04.765097,3349167,-1470,-7,836,-1053,-501,-270,175,407,-193
262,0,2022-09-30T20:43:04.771179,3349173,-1470,-7,836,-1053,-501,-270,175,407,-193
263,0,2022-09-30T20:43:04.777599,3349180,-1470,2,828,-939,-536,-277,175,407,-193
264,0,2022-09-30T20:43:04.784440,3349186,-1470,2,828,-939,-536,-277,175,407,-193
265,0,2022-09-30T20:43:04.790589,3349192,-1470,2,828,-939,-536,-277,175,407,-193
266,0,2022-09-30T20:43:04.796308,3349198,-1469,-4,833,-892,-548,-305,175,407,-195
267,0,2022-09-30T20:43:04.802337,3349204,-1469,-4,833,-892,-548,-305,175,407,-195
268,0,2022-09-30T20:43:04.807659,3349210,-1469,-4,833,-892,-548,-305,175,407,-195
269,0,2022-09-30T20:43:04.813533,3349216,-1469,-4,833,-892,-548,-305,175,407,-195
270,0,2022-09-30T20:43:04.819537,3349221,-1469,-7,836,-1012,-530,-358,175,407,-195
271,0,2022-09-30T20:43:04.827473,3349229,-1469,-7,836,-1012,-530,-358,175,407,-195
272,0,2022-09-30T20:43:04.832998,3349235,-1469,-7,836,-1012,-530,-358,175,407,-195
273,0,2022-09-30T20:43:04.838628,3349240,-1467,2,839,-1180,-549,-336,175,407,-195
274,0,2022-09-30T20:43:04.846852,3349250,-1467,2,839,-1180,-549,-336,175,407,-195
275,0,2022-09-30T20:43:04.852704,3349255,-1467,2,839,-1180,-549,-336,175,407,-195
276,0,2022-09-30T20:43:04.858789,3349261,-1477,-3,834,-1144,-470,-356,175,407,-195
277,0,2022-09-30T20:43:04.864234,3349267,-1477,-3,834,-1144,-470,-356,175,407,-195
278,0,2022-09-30T20:43:04.870186,3349272,-1477,-3,834,-1144,-470,-356,175,407,-195
279,0,2022-09-30T20:43:04.876084,3349278,-1474,-12,831,-1081,-576,-351,175,407,-195
280,0,2022-09-30T20:43:04.882083,3349284,-1474,-12,831,-1081,-576,-351,175,407,-195
281,0,2022-09-30T20:43:04.887667,3349289,-1474,-12,831,-1081,-576,-351,175,407,-195
282,0,2022-09-30T20:43:04.894860,3349296,-1474,-12,831,-1081,-576,-351,175,407,-195
283,0,2022-09-30T20:43:04.900802,3349303,-1471,-6,828,-931,-587,-349,175,407,-195
284,0,2022-09-30T20:43:04.930029,3349311,-1471,-6,828,-931,-587,-349,175,407,-195
285,0,2022-09-30T20:43:04.936122,3349338,-1467,3,827,-938,-524,-287,165,403,-199
286,0,2022-09-30T20:43:04.942127,3349344,-1467,3,827,-938,-524,-287,165,403,-199
287,0,2022-09-30T20:43:04.948013,3349350,-1467,3,827,-938,-524,-287,165,403,-199
288,0,2022-09-30T20:43:04.953642,3349356,-1467,3,827,-938,-524,-287,165,403,-199
289,0,2022-09-30T20:43:04.959756,3349362,-1469,-2,835,-1234,-518,-349,165,403,-199
290,0,2022-09-30T20:43:04.966077,3349368,-1469,-2,835,-1234,-518,-349,165,403,-199
291,0,2022-09-30T20:43:04.971552,3349373,-1469,-2,835,-1234,-518,-349,165,403,-199
292,0,2022-09-30T20:43:04.977949,3349380,-1475,-8,842,-1338,-606,-366,165,403,-199
293,0,2022-09-30T20:43:04.983379,3349386,-1475,-8,842,-1338,-606,-366,165,403,-199
294,0,2022-09-30T20:43:04.990146,3349392,-1475,-8,842,-1338,-606,-366,165,403,-199
295,0,2022-09-30T20:43:04.995771,3349398,-1470,-18,831,-1074,-695,-305,165,403,-199
296,0,2022-09-30T20:43:05.001598,3349404,-1470,-18,831,-1074,-695,-305,165,403,-199
297,0,2022-09-30T20:43:05.006826,3349409,-1470,-18,831,-1074,-695,-305,165,403,-199
298,0,2022-09-30T20:43:05.013380,3349415,-1470,-18,831,-1074,-695,-305,165,403,-199
299,0,2022-09-30T20:43:05.023073,3349426,-1464,-3,832,-703,-598,-275,165,403,-199
300,0,2022-09-30T20:43:05.028989,3349431,-1464,-3,832,-703,-598,-275,165,403,-199
301,0,2022-09-30T20:43:05.035287,3349437,-1466,7,838,-601,-424,-254,165,403,-199
302,0,2022-09-30T20:43:05.042727,3349445,-1466,7,838,-601,-424,-254,165,403,-199
303,0,2022-09-30T20:43:05.048330,3349450,-1466,7,838,-601,-424,-254,165,403,-199
304,0,2022-09-30T20:43:05.054655,3349456,-1466,7,838,-601,-424,-254,165,403,-199
305,0,2022-09-30T20:43:05.060486,3349463,-1472,2,838,-906,-494,-220,173,403,-191
306,0,2022-09-30T20:43:05.071625,3349469,-1472,2,838,-906,-494,-220,173,403,-191
307,0,2022-09-30T20:43:05.077335,3349480,-1475,2,839,-1279,-572,-322,173,403,-191
308,0,2022-09-30T20:43:05.082993,3349485,-1475,2,839,-1279,-572,-322,173,403,-191
309,0,2022-09-30T20:43:05.088345,3349491,-1475,2,839,-1279,-572,-322,173,403,-191
310,0,2022-09-30T20:43:05.093976,3349496,-1475,2,839,-1279,-572,-322,173,403,-191
311,0,2022-09-30T20:43:05.100064,3349502,-1475,2,839,-1279,-572,-322,173,403,-191
312,0,2022-09-30T20:43:05.105981,3349509,-1475,2,839,-1279,-572,-322,173,403,-191
313,0,2022-09-30T20:43:05.111941,3349514,-1475,2,839,-1279,-572,-322,173,403,-191
314,0,2022-09-30T20:43:05.117688,3349520,-1464,-12,826,-1212,-727,-444,173,403,-191
315,0,2022-09-30T20:43:05.123986,3349526,-1464,-12,826,-1212,-727,-444,173,403,-191
316,0,2022-09-30T20:43:05.130013,3349532,-1464,-12,826,-1212,-727,-444,173,403,-191
317,0,2022-09-30T20:43:05.136061,3349538,-1461,-2,836,-807,-556,-350,173,403,-191
318,0,2022-09-30T20:43:05.141813,3349544,-1461,-2,836,-807,-556,-350,173,403,-191
319,0,2022-09-30T20:43:05.147782,3349551,-1461,-2,836,-807,-556,-350,173,403,-191
320,0,2022-09-30T20:43:05.153402,3349556,-1461,-2,836,-807,-556,-350,173,403,-191
321,0,2022-09-30T20:43:05.159159,3349561,-1462,12,831,-543,-435,-204,173,403,-191
322,0,2022-09-30T20:43:05.165005,3349567,-1462,12,831,-543,-435,-204,173,403,-191
323,0,2022-09-30T20:43:05.171427,3349573,-1462,12,831,-543,-435,-204,173,403,-191
324,0,2022-09-30T20:43:05.177313,3349579,-1468,3,827,-700,-456,-125,173,403,-191
325,0,2022-09-30T20:43:05.183033,3349585,-1468,3,827,-700,-456,-125,173,403,-191
326,0,2022-09-30T20:43:05.188282,3349591,-1468,3,827,-700,-456,-125,173,403,-191
327,0,2022-09-30T20:43:05.194904,3349596,-1468,3,827,-700,-456,-125,173,403,-191
328,0,2022-09-30T20:43:05.201115,3349603,-1476,-4,836,-1046,-484,-213,170,412,-192
329,0,2022-09-30T20:43:05.207027,3349609,-1476,-4,836,-1046,-484,-213,170,412,-192
330,0,2022-09-30T20:43:05.212196,3349614,-1476,-4,836,-1046,-484,-213,170,412,-192
331,0,2022-09-30T20:43:05.217587,3349620,-1478,-7,840,-1320,-558,-357,170,412,-192
332,0,2022-09-30T20:43:05.223660,3349625,-1478,-7,840,-1320,-558,-357,170,412,-192
333,0,2022-09-30T20:43:05.229030,3349632,-1478,-7,840,-1320,-558,-357,170,412,-192
334,0,2022-09-30T20:43:05.234860,3349638,-1478,-7,840,-1320,-558,-357,170,412,-192
335,0,2022-09-30T20:43:05.240700,3349643,-1473,-5,840,-1302,-613,-461,170,412,-192
336,0,2022-09-30T20:43:05.246575,3349649,-1473,-5,840,-1302,-613,-461,170,412,-192
337,0,2022-09-30T20:43:05.251874,3349654,-1473,-5,840,-1302,-613,-461,170,412,-192
338,0,2022-09-30T20:43:05.257169,3349659,-1462,4,830,-1014,-578,-455,170,412,-192
339,0,2022-09-30T20:43:05.264464,3349666,-1462,4,830,-1014,-578,-455,170,412,-192
340,0,2022-09-30T20:43:05.270341,3349672,-1462,4,830,-1014,-578,-455,170,412,-192
341,0,2022-09-30T20:43:05.276342,3349679,-1464,-2,827,-741,-526,-320,170,412,-192
342,0,2022-09-30T20:43:05.281622,3349684,-1464,-2,827,-741,-526,-320,170,412,-192
343,0,2022-09-30T20:43:05.287308,3349690,-1464,-2,827,-741,-526,-320,170,412,-192
344,0,2022-09-30T20:43:05.293463,3349695,-1464,-2,827,-741,-526,-320,170,412,-192
345,0,2022-09-30T20:43:05.299416,3349701,-1469,-5,820,-704,-474,-188,170,412,-192
346,0,2022-09-30T20:43:05.304940,3349707,-1469,-5,820,-704,-474,-188,170,412,-192
347,0,2022-09-30T20:43:05.310787,3349712,-1469,-5,820,-704,-474,-188,170,412,-192
348,0,2022-09-30T20:43:05.317778,3349719,-1473,2,833,-863,-484,-132,175,401,-205
349,0,2022-09-30T20:43:05.323360,3349726,-1473,2,833,-863,-484,-132,175,401,-205
350,0,2022-09-30T20:43:05.329077,3349732,-1473,2,833,-863,-484,-132,175,401,-205
351,0,2022-09-30T20:43:05.335039,3349737,-1473,2,833,-863,-484,-132,175,401,-205
352,0,2022-09-30T20:43:05.341228,3349743,-1473,10,837,-1054,-557,-173,175,401,-205
353,0,2022-09-30T20:43:05.346879,3349749,-1473,10,837,-1054,-557,-173,175,401,-205
354,0,2022-09-30T20:43:05.352568,3349754,-1473,10,837,-1054,-557,-173,175,401,-205
355,0,2022-09-30T20:43:05.358595,3349761,-1474,6,836,-1114,-586,-307,175,401,-205
356,0,2022-09-30T20:43:05.363952,3349767,-1474,6,836,-1114,-586,-307,175,401,-205
357,0,2022-09-30T20:43:05.369783,3349772,-1474,6,836,-1114,-586,-307,175,401,-205
358,0,2022-09-30T20:43:05.375457,3349778,-1469,1,830,-1062,-546,-423,175,401,-205
359,0,2022-09-30T20:43:05.381162,3349783,-1469,1,830,-1062,-546,-423,175,401,-205
360,0,2022-09-30T20:43:05.386886,3349789,-1469,1,830,-1062,-546,-423,175,401,-205
361,0,2022-09-30T20:43:05.392493,3349794,-1469,1,830,-1062,-546,-423,175,401,-205
362,0,2022-09-30T20:43:05.398131,3349800,-1467,-1,833,-994,-549,-375,175,401,-205
363,0,2022-09-30T20:43:05.405359,3349808,-1467,-1,833,-994,-549,-375,175,401,-205
364,0,2022-09-30T20:43:05.411073,3349813,-1467,-1,833,-994,-549,-375,175,401,-205
365,0,2022-09-30T20:43:05.416902,3349819,-1470,-8,829,-1005,-555,-278,175,401,-205
366,0,2022-09-30T20:43:05.423210,3349825,-1470,-8,829,-1005,-555,-278,175,401,-205
367,0,2022-09-30T20:43:05.428691,3349831,-1470,-8,829,-1005,-555,-278,175,401,-205
368,0,2022-09-30T20:43:05.434259,3349836,-1470,-8,829,-1005,-555,-278,175,401,-205
369,0,2022-09-30T20:43:05.439800,3349841,-1473,1,841,-1031,-566,-259,174,396,-188
370,0,2022-09-30T20:43:05.448200,3349851,-1473,1,841,-1031,-566,-259,174,396,-188
371,0,2022-09-30T20:43:05.453472,3349856,-1473,1,841,-1031,-566,-259,174,396,-188
372,0,2022-09-30T20:43:05.459079,3349861,-1472,12,839,-978,-584,-351,174,396,-188
373,0,2022-09-30T20:43:05.464679,3349867,-1472,12,839,-978,-584,-351,174,396,-188
374,0,2022-09-30T20:43:05.470065,3349872,-1472,12,839,-978,-584,-351,174,396,-188
375,0,2022-09-30T20:43:05.476197,3349878,-1465,5,831,-996,-627,-337,174,396,-188
376,0,2022-09-30T20:43:05.481622,3349883,-1465,5,831,-996,-627,-337,174,396,-188
377,0,2022-09-30T20:43:05.487259,3349890,-1465,5,831,-996,-627,-337,174,396,-188
378,0,2022-09-30T20:43:05.493574,3349896,-1465,5,831,-996,-627,-337,174,396,-188
379,0,2022-09-30T20:43:05.499414,3349901,-1466,12,835,-982,-504,-300,174,396,-188
380,0,2022-09-30T20:43:05.505011,3349907,-1466,12,835,-982,-504,-300,174,396,-188
381,0,2022-09-30T20:43:05.511003,3349913,-1466,12,835,-982,-504,-300,174,396,-188
382,0,2022-09-30T20:43:05.517152,3349919,-1475,5,833,-898,-424,-238,174,396,-188
383,0,2022-09-30T20:43:05.522756,3349925,-1475,5,833,-898,-424,-238,174,396,-188
384,0,2022-09-30T20:43:05.528425,3349931,-1475,5,833,-898,-424,-238,174,396,-188
385,0,2022-09-30T20:43:05.534405,3349937,-1475,5,833,-898,-424,-238,174,396,-188
386,0,2022-09-30T20:43:05.540280,3349943,-1475,-5,832,-844,-507,-227,174,396,-188
387,0,2022-09-30T20:43:05.545761,3349948,-1475,-5,832,-844,-507,-227,174,396,-188
388,0,2022-09-30T20:43:05.555772,3349954,-1475,-5,832,-844,-507,-227,174,396,-188
389,0,2022-09-30T20:43:05.572951,3349971,-1476,4,826,-790,-601,-327,174,396,-188
390,0,2022-09-30T20:43:05.598547,3349993,-1467,15,838,-708,-505,-535,173,405,-199
391,0,2022-09-30T20:43:05.619971,3350011,-1462,8,826,-720,-577,-285,173,405,-199
392,0,2022-09-30T20:43:05.629236,3350031,-1473,-13,832,-824,-419,-170,173,405,-199
393,0,2022-09-30T20:43:05.643249,3350043,-1466,27,835,-1019,-536,-196,173,405,-199
394,0,2022-09-30T20:43:05.651163,3350053,-1466,27,835,-1019,-536,-196,173,405,-199
395,0,2022-09-30T20:43:05.658711,3350062,-1482,-11,845,-1124,-547,-243,173,405,-199
396,0,2022-09-30T20:43:05.669466,3350069,-1482,-11,845,-1124,-547,-243,173,405,-199
397,0,2022-09-30T20:43:05.676034,3350078,-1468,14,817,-1035,-645,-341,173,405,-199
398,0,2022-09-30T20:43:05.686225,3350088,-1468,14,817,-1035,-645,-341,173,405,-199
399,0,2022-09-30T20:43:05.693056,3350094,-1468,14,817,-1035,-645,-341,173,405,-199
400,0,2022-09-30T20:43:05.700446,3350103,-1471,20,840,-729,-267,-478,170,404,-190
401,0,2022-09-30T20:43:05.709653,3350112,-1471,20,840,-729,-267,-478,170,404,-190
402,0,2022-09-30T20:43:05.716022,3350118,-1471,20,840,-729,-267,-478,170,404,-190
403,0,2022-09-30T20:43:05.723560,3350126,-1466,13,828,-984,-537,-487,170,404,-190
404,0,2022-09-30T20:43:05.731484,3350134,-1466,13,828,-984,-537,-487,170,404,-190
405,0,2022-09-30T20:43:05.739641,3350140,-1456,-7,890,-906,-708,-170,170,404,-190
406,0,2022-09-30T20:43:05.747557,3350150,-1456,-7,890,-906,-708,-170,170,404,-190
407,0,2022-09-30T20:43:05.753809,3350156,-1456,-7,890,-906,-708,-170,170,404,-190
408,0,2022-09-30T20:43:05.761355,3350164,-1457,30,779,-294,-1077,-155,170,404,-190
409,0,2022-09-30T20:43:05.768884,3350171,-1457,30,779,-294,-1077,-155,170,404,-190
410,0,2022-09-30T20:43:05.774765,3350177,-1457,30,779,-294,-1077,-155,170,404,-190
411,0,2022-09-30T20:43:05.782473,3350184,-1460,5,852,-207,-252,83,170,404,-190
412,0,2022-09-30T20:43:05.788932,3350192,-1460,5,852,-207,-252,83,170,404,-190
413,0,2022-09-30T20:43:05.796854,3350200,-1476,55,810,373,115,-180,170,404,-190
414,0,2022-09-30T20:43:05.805460,3350208,-1476,55,810,373,115,-180,170,404,-190
415,0,2022-09-30T20:43:05.811318,3350213,-1476,55,810,373,115,-180,170,404,-190
416,0,2022-09-30T20:43:05.818756,3350221,-1509,14,850,-242,101,-364,170,404,-190
417,0,2022-09-30T20:43:05.825466,3350228,-1509,14,850,-242,101,-364,170,404,-190
418,0,2022-09-30T20:43:05.830997,3350234,-1509,14,850,-242,101,-364,170,404,-190
419,0,2022-09-30T20:43:05.837194,3350240,-1466,37,820,-1370,-861,-388,163,393,-195
420,0,2022-09-30T20:43:05.847298,3350250,-1466,37,820,-1370,-861,-388,163,393,-195
421,0,2022-09-30T20:43:05.856902,3350259,-1473,1,821,-1468,-683,-680,163,393,-195
422,0,2022-09-30T20:43:05.866249,3350268,-1473,1,821,-1468,-683,-680,163,393,-195
423,0,2022-09-30T20:43:05.872273,3350275,-1473,1,821,-1468,-683,-680,163,393,-195
424,0,2022-09-30T20:43:05.878285,3350281,-1474,12,825,-1731,-689,-693,163,393,-195
425,0,2022-09-30T20:43:05.886520,3350288,-1474,12,825,-1731,-689,-693,163,393,-195
426,0,2022-09-30T20:43:05.898849,3350301,-1471,10,842,-1657,-676,-434,163,393,-195
427,0,2022-09-30T20:43:05.909955,3350312,-1471,10,842,-1657,-676,-434,163,393,-195
428,0,2022-09-30T20:43:05.918668,3350321,-1476,9,842,-1288,-778,-297,163,393,-195
429,0,2022-09-30T20:43:05.930388,3350333,-1476,9,842,-1288,-778,-297,163,393,-195
430,0,2022-09-30T20:43:06.006352,3350338,-1460,32,823,-847,-753,-203,163,393,-195
431,0,2022-09-30T20:43:06.014121,3350416,-1474,11,830,-1267,-671,-269,168,402,-192
432,0,2022-09-30T20:43:06.027565,3350430,-1469,19,843,-1353,-592,-377,168,402,-192
433,0,2022-09-30T20:43:06.034885,3350437,-1469,19,843,-1353,-592,-377,168,402,-192
434,0,2022-09-30T20:43:06.041026,3350443,-1479,15,846,-1237,-567,-527,168,402,-192
435,0,2022-09-30T20:43:06.052792,3350455,-1479,15,846,-1237,-567,-527,168,402,-192
436,0,2022-09-30T20:43:06.060418,3350463,-1471,5,837,-1245,-696,-502,168,402,-192
437,0,2022-09-30T20:43:06.068007,3350470,-1471,5,837,-1245,-696,-502,168,402,-192
438,0,2022-09-30T20:43:06.076421,3350478,-1463,9,827,-989,-620,-449,167,403,-191
439,0,2022-09-30T20:43:06.085150,3350488,-1463,9,827,-989,-620,-449,167,403,-191
440,0,2022-09-30T20:43:06.092054,3350494,-1463,9,827,-989,-620,-449,167,403,-191
441,0,2022-09-30T20:43:06.099703,3350502,-1466,31,838,-652,-451,-376,167,403,-191
442,0,2022-09-30T20:43:06.107582,3350510,-1466,31,838,-652,-451,-376,167,403,-191
443,0,2022-09-30T20:43:06.112938,3350515,-1466,31,838,-652,-451,-376,167,403,-191
444,0,2022-09-30T20:43:06.121793,3350523,-1468,26,828,-724,-453,-238,167,403,-191
445,0,2022-09-30T20:43:06.129661,3350532,-1468,26,828,-724,-453,-238,167,403,-191
446,0,2022-09-30T20:43:06.137775,3350540,-1471,19,823,-1094,-448,-240,167,403,-191
447,0,2022-09-30T20:43:06.146508,3350549,-1471,19,823,-1094,-448,-240,167,403,-191
448,0,2022-09-30T20:43:06.202757,3350604,-1472,3,830,-876,-616,-453,167,403,-191
449,0,2022-09-30T20:43:06.211657,3350615,-1472,3,830,-876,-616,-453,167,403,-191
450,0,2022-09-30T20:43:06.222356,3350622,-1476,10,826,-537,-449,-541,167,405,-201
451,0,2022-09-30T20:43:06.230171,3350632,-1476,10,826,-537,-449,-541,167,405,-201
452,0,2022-09-30T20:43:06.235868,3350638,-1476,10,826,-537,-449,-541,167,405,-201
453,0,2022-09-30T20:43:06.244172,3350645,-1467,30,829,-734,-433,-499,167,405,-201
454,0,2022-09-30T20:43:06.252492,3350654,-1467,30,829,-734,-433,-499,167,405,-201
455,0,2022-09-30T20:43:06.260703,3350663,-1471,26,832,-1106,-508,-417,167,405,-201
456,0,2022-09-30T20:43:06.268786,3350671,-1471,26,832,-1106,-508,-417,167,405,-201
457,0,2022-09-30T20:43:06.277788,3350680,-1478,6,826,-1253,-607,-311,167,405,-201
458,0,2022-09-30T20:43:06.286631,3350689,-1478,6,826,-1253,-607,-311,167,405,-201
459,0,2022-09-30T20:43:06.294370,3350694,-1478,6,826,-1253,-607,-311,167,405,-201
460,0,2022-09-30T20:43:06.303896,3350707,-1481,4,834,-1008,-512,-308,167,405,-201
461,0,2022-09-30T20:43:06.311278,3350714,-1481,4,834,-1008,-512,-308,167,405,-201
462,0,2022-09-30T20:43:06.319065,3350720,-1480,15,834,-793,-478,-377,167,405,-201
463,0,2022-09-30T20:43:06.328027,3350730,-1480,15,834,-793,-478,-377,167,405,-201
464,0,2022-09-30T20:43:06.337343,3350740,-1479,11,825,-861,-549,-376,181,405,-191
465,0,2022-09-30T20:43:06.348477,3350750,-1479,11,825,-861,-549,-376,181,405,-191
466,0,2022-09-30T20:43:06.356635,3350759,-1478,10,824,-995,-537,-446,181,405,-191
467,0,2022-09-30T20:43:06.365744,3350768,-1478,10,824,-995,-537,-446,181,405,-191
468,0,2022-09-30T20:43:06.378783,3350781,-1472,7,824,-1148,-606,-433,181,405,-191
469,0,2022-09-30T20:43:06.387365,3350790,-1472,7,824,-1148,-606,-433,181,405,-191
470,0,2022-09-30T20:43:06.396927,3350795,-1472,7,824,-1148,-606,-433,181,405,-191
471,0,2022-09-30T20:43:06.404776,3350807,-1472,15,823,-1203,-676,-369,181,405,-191
472,0,2022-09-30T20:43:06.412013,3350814,-1472,15,823,-1203,-676,-369,181,405,-191
473,0,2022-09-30T20:43:06.422423,3350821,-1472,18,832,-1042,-580,-332,181,405,-191
474,0,2022-09-30T20:43:06.429930,3350833,-1472,18,832,-1042,-580,-332,181,405,-191
475,0,2022-09-30T20:43:06.435603,3350838,-1472,18,832,-1042,-580,-332,181,405,-191
476,0,2022-09-30T20:43:06.443575,3350845,-1476,21,835,-878,-522,-346,181,405,-191
477,0,2022-09-30T20:43:06.452150,3350854,-1476,21,835,-878,-522,-346,181,405,-191
478,0,2022-09-30T20:43:06.461221,3350863,-1476,17,820,-868,-568,-397,181,405,-191
479,0,2022-09-30T20:43:06.472579,3350872,-1476,17,820,-868,-568,-397,181,405,-191
480,0,2022-09-30T20:43:06.480114,3350883,-1470,11,823,-1065,-587,-425,169,403,-199
481,0,2022-09-30T20:43:06.488611,3350891,-1470,11,823,-1065,-587,-425,169,403,-199
482,0,2022-09-30T20:43:06.497142,3350899,-1470,12,835,-1325,-546,-411,169,403,-199
483,0,2022-09-30T20:43:06.507695,3350909,-1470,12,835,-1325,-546,-411,169,403,-199
484,0,2022-09-30T20:43:06.513770,3350916,-1470,12,835,-1325,-546,-411,169,403,-199
485,0,2022-09-30T20:43:06.524501,3350927,-1476,11,838,-1283,-543,-312,169,403,-199
486,0,2022-09-30T20:43:06.531971,3350934,-1476,11,838,-1283,-543,-312,169,403,-199
487,0,2022-09-30T20:43:06.541031,3350943,-1474,10,837,-942,-640,-239,169,403,-199
488,0,2022-09-30T20:43:06.549912,3350952,-1474,10,837,-942,-640,-239,169,403,-199
489,0,2022-09-30T20:43:06.555370,3350958,-1474,10,837,-942,-640,-239,169,403,-199
490,0,2022-09-30T20:43:06.562911,3350966,-1470,15,826,-565,-543,-288,169,403,-199
491,0,2022-09-30T20:43:06.571822,3350974,-1470,15,826,-565,-543,-288,169,403,-199
492,0,2022-09-30T20:43:06.581340,3350984,-1474,21,820,-567,-391,-379,169,403,-199
493,0,2022-09-30T20:43:06.588810,3350991,-1474,21,820,-567,-391,-379,169,403,-199
494,0,2022-09-30T20:43:06.595722,3350998,-1474,21,820,-567,-391,-379,169,403,-199
495,0,2022-09-30T20:43:06.603066,3351006,-1479,21,826,-1046,-467,-429,166,396,-198
496,0,2022-09-30T20:43:06.610561,3351013,-1479,21,826,-1046,-467,-429,166,396,-198
497,0,2022-09-30T20:43:06.617500,3351019,-1479,21,826,-1046,-467,-429,166,396,-198
498,0,2022-09-30T20:43:06.628297,3351030,-1473,12,830,-1491,-635,-422,166,396,-198
499,0,2022-09-30T20:43:06.635658,3351038,-1473,12,830,-1491,-635,-422,166,396,-198
500,0,2022-09-30T20:43:06.644522,3351046,-1475,4,836,-1446,-670,-369,166,396,-198
501,0,2022-09-30T20:43:06.653804,3351056,-1475,4,836,-1446,-670,-369,166,396,-198
502,0,2022-09-30T20:43:06.662423,3351065,-1476,8,832,-1041,-586,-289,166,396,-198
503,0,2022-09-30T20:43:06.670272,3351072,-1476,8,832,-1041,-586,-289,166,396,-198
504,0,2022-09-30T20:43:06.679220,3351081,-1479,14,833,-651,-498,-288,166,396,-198
505,0,2022-09-30T20:43:06.688116,3351091,-1479,14,833,-651,-498,-288,166,396,-198
506,0,2022-09-30T20:43:06.694473,3351096,-1479,14,833,-651,-498,-288,166,396,-198
507,0,2022-09-30T20:43:06.704042,3351107,-1476,17,822,-651,-523,-330,166,396,-198
508,0,2022-09-30T20:43:06.710215,3351113,-1476,17,822,-651,-523,-330,166,396,-198
509,0,2022-09-30T20:43:06.717340,3351118,-1476,17,822,-651,-523,-330,166,396,-198
510,0,2022-09-30T20:43:06.728410,3351131,-1472,14,814,-1014,-561,-377,166,396,-198
511,0,2022-09-30T20:43:06.733735,3351136,-1472,14,814,-1014,-561,-377,166,396,-198
512,0,2022-09-30T20:43:06.739375,3351142,-1475,11,831,-1401,-572,-361,171,403,-185
513,0,2022-09-30T20:43:06.751073,3351153,-1475,11,831,-1401,-572,-361,171,403,-185
514,0,2022-09-30T20:43:06.756794,3351159,-1479,6,840,-1488,-624,-342,171,403,-185
515,0,2022-09-30T20:43:06.766071,3351168,-1479,6,840,-1488,-624,-342,171,403,-185
516,0,2022-09-30T20:43:06.775956,3351179,-1479,6,840,-1488,-624,-342,171,403,-185
517,0,2022-09-30T20:43:06.783294,3351186,-1476,4,834,-1256,-659,-335,171,403,-185
518,0,2022-09-30T20:43:06.788837,3351191,-1476,4,834,-1256,-659,-335,171,403,-185
519,0,2022-09-30T20:43:06.798850,3351201,-1473,9,830,-915,-574,-347,171,403,-185
520,0,2022-09-30T20:43:06.809062,3351212,-1473,9,830,-915,-574,-347,171,403,-185
521,0,2022-09-30T20:43:06.816267,3351218,-1473,9,830,-915,-574,-347,171,403,-185
522,0,2022-09-30T20:43:06.826117,3351229,-1468,19,821,-820,-486,-357,171,403,-185
523,0,2022-09-30T20:43:06.834858,3351237,-1468,19,821,-820,-486,-357,171,403,-185
524,0,2022-09-30T20:43:06.843201,3351244,-1468,11,824,-1060,-546,-308,171,403,-185
525,0,2022-09-30T20:43:06.853922,3351257,-1468,11,824,-1060,-546,-308,171,403,-185
526,0,2022-09-30T20:43:06.861319,3351264,-1473,6,827,-1268,-578,-269,171,407,-193
527,0,2022-09-30T20:43:06.871498,3351274,-1473,6,827,-1268,-578,-269,171,407,-193
528,0,2022-09-30T20:43:06.877227,3351280,-1480,6,833,-1222,-560,-271,171,407,-193
529,0,2022-09-30T20:43:06.887259,3351289,-1480,6,833,-1222,-560,-271,171,407,-193
530,0,2022-09-30T20:43:06.895496,3351296,-1480,6,833,-1222,-560,-271,171,407,-193
531,0,2022-09-30T20:43:06.905702,3351308,-1475,11,833,-1051,-547,-263,171,407,-193
532,0,2022-09-30T20:43:06.912891,3351315,-1475,11,833,-1051,-547,-263,171,407,-193
533,0,2022-09-30T20:43:06.923292,3351324,-1474,9,828,-923,-520,-305,171,407,-193
534,0,2022-09-30T20:43:06.930492,3351333,-1474,9,828,-923,-520,-305,171,407,-193
535,0,2022-09-30T20:43:06.936005,3351339,-1474,9,828,-923,-520,-305,171,407,-193
536,0,2022-09-30T20:43:06.943109,3351345,-1474,13,821,-1003,-509,-326,171,407,-193
537,0,2022-09-30T20:43:06.952028,3351355,-1474,13,821,-1003,-509,-326,171,407,-193
538,0,2022-09-30T20:43:06.959908,3351360,-1476,21,823,-1222,-527,-361,171,407,-193
539,0,2022-09-30T20:43:06.968246,3351370,-1476,21,823,-1222,-527,-361,171,407,-193
540,0,2022-09-30T20:43:06.973939,3351376,-1476,21,823,-1222,-527,-361,171,407,-193
541,0,2022-09-30T20:43:06.981321,3351384,-1477,7,832,-1378,-589,-317,172,402,-196
542,0,2022-09-30T20:43:06.988631,3351391,-1477,7,832,-1378,-589,-317,172,402,-196
543,0,2022-09-30T20:43:06.996638,3351399,-1477,7,832,-1378,-589,-317,172,402,-196
544,0,2022-09-30T20:43:07.006096,3351408,-1475,-3,828,-1356,-651,-298,172,402,-196
545,0,2022-09-30T20:43:07.013227,3351415,-1475,-3,828,-1356,-651,-298,172,402,-196
546,0,2022-09-30T20:43:07.022035,3351424,-1476,3,830,-1131,-583,-329,172,402,-196
547,0,2022-09-30T20:43:07.029681,3351432,-1476,3,830,-1131,-583,-329,172,402,-196
548,0,2022-09-30T20:43:07.035670,3351438,-1476,3,830,-1131,-583,-329,172,402,-196
549,0,2022-09-30T20:43:07.043687,3351446,-1474,14,831,-886,-553,-344,172,402,-196
550,0,2022-09-30T20:43:07.055264,3351458,-1474,14,831,-886,-553,-344,172,402,-196
551,0,2022-09-30T20:43:07.064087,3351467,-1473,17,829,-888,-578,-332,172,402,-196
552,0,2022-09-30T20:43:07.074318,3351477,-1473,17,829,-888,-578,-332,172,402,-196
553,0,2022-09-30T20:43:07.082988,3351485,-1471,12,824,-1058,-556,-312,172,402,-196
554,0,2022-09-30T20:43:07.090327,3351493,-1471,12,824,-1058,-556,-312,172,402,-196
555,0,2022-09-30T20:43:07.101710,3351504,-1479,0,829,-1239,-576,-266,172,402,-196
556,0,2022-09-30T20:43:07.108408,3351510,-1479,0,829,-1239,-576,-266,172,402,-196
557,0,2022-09-30T20:43:07.114562,3351517,-1479,0,829,-1239,-576,-266,172,402,-196
558,0,2022-09-30T20:43:07.126284,3351529,-1478,7,843,-1253,-591,-303,166,406,-196
559,0,2022-09-30T20:43:07.135725,3351538,-1478,7,843,-1253,-591,-303,166,406,-196
560,0,2022-09-30T20:43:07.143906,3351545,-1474,17,842,-1107,-552,-390,166,406,-196
561,0,2022-09-30T20:43:07.149292,3351553,-1474,17,842,-1107,-552,-390,166,406,-196
562,0,2022-09-30T20:43:07.155277,3351558,-1474,17,842,-1107,-552,-390,166,406,-196
563,0,2022-09-30T20:43:07.162603,3351565,-1473,1,834,-989,-550,-387,166,406,-196
564,0,2022-09-30T20:43:07.172299,3351574,-1473,1,834,-989,-550,-387,166,406,-196
565,0,2022-09-30T20:43:07.182516,3351585,-1471,0,828,-1001,-579,-315,166,406,-196
566,0,2022-09-30T20:43:07.189875,3351592,-1471,0,828,-1001,-579,-315,166,406,-196
567,0,2022-09-30T20:43:07.199985,3351602,-1471,12,835,-1077,-565,-290,166,406,-196
568,0,2022-09-30T20:43:07.208351,3351611,-1471,12,835,-1077,-565,-290,166,406,-196
569,0,2022-09-30T20:43:07.220454,3351617,-1471,12,835,-1077,-565,-290,166,406,-196
570,0,2022-09-30T20:43:07.228591,3351630,-1470,7,833,-1182,-645,-246,166,406,-196
571,0,2022-09-30T20:43:07.236394,3351639,-1470,7,833,-1182,-645,-246,166,406,-196
572,0,2022-09-30T20:43:07.245957,3351647,-1473,3,828,-1081,-561,-254,171,397,-187
573,0,2022-09-30T20:43:07.254617,3351657,-1473,3,828,-1081,-561,-254,171,397,-187
574,0,2022-09-30T20:43:07.263829,3351666,-1474,2,830,-937,-536,-283,171,397,-187
575,0,2022-09-30T20:43:07.273872,3351675,-1474,2,830,-937,-536,-283,171,397,-187
576,0,2022-09-30T20:43:07.280015,3351683,-1472,11,824,-945,-607,-294,171,397,-187
577,0,2022-09-30T20:43:07.287154,3351690,-1472,11,824,-945,-607,-294,171,397,-187
578,0,2022-09-30T20:43:07.295095,3351696,-1472,11,824,-945,-607,-294,171,397,-187
579,0,2022-09-30T20:43:07.304057,3351707,-1468,15,832,-1092,-552,-333,171,397,-187
580,0,2022-09-30T20:43:07.311461,3351714,-1468,15,832,-1092,-552,-333,171,397,-187
581,0,2022-09-30T20:43:07.318622,3351719,-1468,15,832,-1092,-552,-333,171,397,-187
582,0,2022-09-30T20:43:07.328435,3351731,-1474,12,837,-1324,-536,-335,171,397,-187
583,0,2022-09-30T20:43:07.335284,3351738,-1474,12,837,-1324,-536,-335,171,397,-187
584,0,2022-09-30T20:43:07.341629,3351744,-1474,-3,834,-1317,-619,-290,171,397,-187
585,0,2022-09-30T20:43:07.353435,3351755,-1474,-3,834,-1317,-619,-290,171,397,-187
586,0,2022-09-30T20:43:07.362481,3351764,-1474,-1,829,-1028,-624,-267,171,397,-187
587,0,2022-09-30T20:43:07.371334,3351772,-1474,-1,829,-1028,-624,-267,171,397,-187
588,0,2022-09-30T20:43:07.381012,3351784,-1467,12,832,-737,-534,-268,172,400,-192
589,0,2022-09-30T20:43:07.389667,3351792,-1467,12,832,-737,-534,-268,172,400,-192
590,0,2022-09-30T20:43:07.398466,3351801,-1469,11,827,-768,-469,-233,172,400,-192
591,0,2022-09-30T20:43:07.409204,3351812,-1469,11,827,-768,-469,-233,172,400,-192
592,0,2022-09-30T20:43:07.415142,3351818,-1469,11,827,-768,-469,-233,172,400,-192
593,0,2022-09-30T20:43:07.427158,3351830,-1472,4,824,-1111,-512,-219,172,400,-192
594,0,2022-09-30T20:43:07.436248,3351839,-1472,4,824,-1111,-512,-219,172,400,-192
595,0,2022-09-30T20:43:07.444430,3351846,-1472,4,824,-1111,-512,-219,172,400,-192
596,0,2022-09-30T20:43:07.452376,3351855,-1472,4,824,-1111,-512,-219,172,400,-192
597,0,2022-09-30T20:43:07.459839,3351863,-1476,6,836,-1407,-644,-312,172,400,-192
598,0,2022-09-30T20:43:07.466671,3351869,-1476,6,836,-1407,-644,-312,172,400,-192
599,0,2022-09-30T20:43:07.477799,3351880,-1470,3,833,-1061,-628,-357,172,400,-192
600,0,2022-09-30T20:43:07.486463,3351889,-1470,3,833,-1061,-628,-357,172,400,-192
601,0,2022-09-30T20:43:07.494451,3351897,-1470,3,833,-1061,-628,-357,172,400,-192
602,0,2022-09-30T20:43:07.502848,3351906,-1468,6,831,-757,-500,-361,173,405,-191
603,0,2022-09-30T20:43:07.509996,3351913,-1468,6,831,-757,-500,-361,173,405,-191
604,0,2022-09-30T20:43:07.517153,3351918,-1468,6,831,-757,-500,-361,173,405,-191
605,0,2022-09-30T20:43:07.529452,3351931,-1461,7,822,-834,-489,-244,173,405,-191
606,0,2022-09-30T20:43:07.536733,3351940,-1461,7,822,-834,-489,-244,173,405,-191
607,0,2022-09-30T20:43:07.548316,3351950,-1473,8,827,-1223,-536,-168,173,405,-191
608,0,2022-09-30T20:43:07.558180,3351961,-1478,8,832,-1504,-580,-217,173,405,-191
609,0,2022-09-30T20:43:07.567899,3351969,-1478,8,832,-1504,-580,-217,173,405,-191
610,0,2022-09-30T20:43:07.577192,3351980,-1478,8,832,-1504,-580,-217,173,405,-191
611,0,2022-09-30T20:43:07.585526,3351988,-1474,3,834,-1419,-629,-296,173,405,-191
612,0,2022-09-30T20:43:07.595247,3351995,-1474,3,834,-1419,-629,-296,173,405,-191
613,0,2022-09-30T20:43:07.600836,3352003,-1474,0,830,-1061,-628,-314,173,405,-191
614,0,2022-09-30T20:43:07.608156,3352010,-1474,0,830,-1061,-628,-314,173,405,-191
615,0,2022-09-30T20:43:07.614618,3352016,-1474,0,830,-1061,-628,-314,173,405,-191
616,0,2022-09-30T20:43:07.624691,3352028,-1469,12,823,-764,-558,-306,173,405,-191
617,0,2022-09-30T20:43:07.633019,3352036,-1469,12,823,-764,-558,-306,173,405,-191
618,0,2022-09-30T20:43:07.639711,3352042,-1468,13,827,-803,-463,-294,172,404,-194
619,0,2022-09-30T20:43:07.649269,3352052,-1468,13,827,-803,-463,-294,172,404,-194
620,0,2022-09-30T20:43:07.658870,3352061,-1474,9,829,-1174,-573,-256,172,404,-194
621,0,2022-09-30T20:43:07.669495,3352070,-1474,9,829,-1174,-573,-256,172,404,-194
622,0,2022-09-30T20:43:07.679906,3352082,-1473,5,833,-1417,-619,-281,172,404,-194
623,0,2022-09-30T20:43:07.689594,3352092,-1473,5,833,-1417,-619,-281,172,404,-194
624,0,2022-09-30T20:43:07.696387,3352099,-1473,5,833,-1417,-619,-281,172,404,-194
625,0,2022-09-30T20:43:07.702162,3352104,-1475,12,833,-1360,-588,-346,172,404,-194
626,0,2022-09-30T20:43:07.709626,3352112,-1475,12,833,-1360,-588,-346,172,404,-194
627,0,2022-09-30T20:43:07.715111,3352118,-1475,12,833,-1360,-588,-346,172,404,-194
628,0,2022-09-30T20:43:07.722177,3352125,-1471,6,831,-1196,-604,-364,172,404,-194
629,0,2022-09-30T20:43:07.731177,3352133,-1471,6,831,-1196,-604,-364,172,404,-194
630,0,2022-09-30T20:43:07.737045,3352139,-1471,6,831,-1196,-604,-364,172,404,-194
631,0,2022-09-30T20:43:07.744721,3352146,-1466,5,827,-990,-595,-291,172,404,-194
632,0,2022-09-30T20:43:07.753868,3352157,-1466,5,827,-990,-595,-291,172,404,-194
633,0,2022-09-30T20:43:07.761285,3352164,-1476,9,830,-837,-511,-268,169,403,-193
634,0,2022-09-30T20:43:07.769409,3352171,-1476,9,830,-837,-511,-268,169,403,-193
635,0,2022-09-30T20:43:07.776749,3352179,-1476,9,830,-837,-511,-268,169,403,-193
636,0,2022-09-30T20:43:07.784254,3352187,-1479,8,834,-965,-490,-289,169,403,-193
637,0,2022-09-30T20:43:07.789082,3352193,-1479,8,834,-965,-490,-289,169,403,-193
638,0,2022-09-30T20:43:07.801375,3352204,-1474,7,826,-1261,-605,-323,169,403,-193
639,0,2022-09-30T20:43:07.845369,3352248,-1471,-9,834,-1229,-652,-295,169,403,-193
640,0,2022-09-30T20:43:07.856780,3352259,-1471,-9,834,-1229,-652,-295,169,403,-193
641,0,2022-09-30T20:43:07.865770,3352268,-1471,0,822,-865,-639,-206,169,403,-193
642,0,2022-09-30T20:43:07.877454,3352281,-1471,0,822,-865,-639,-206,169,403,-193
643,0,2022-09-30T20:43:07.887480,3352290,-1461,14,842,-543,-465,-211,174,398,-198
644,0,2022-09-30T20:43:07.896296,3352297,-1461,14,842,-543,-465,-211,174,398,-198
645,0,2022-09-30T20:43:07.904767,3352307,-1475,29,826,-783,-553,-350,174,398,-198
646,0,2022-09-30T20:43:07.911575,3352314,-1475,29,826,-783,-553,-350,174,398,-198
647,0,2022-09-30T20:43:07.918201,3352320,-1475,29,826,-783,-553,-350,174,398,-198
648,0,2022-09-30T20:43:07.929217,3352332,-1475,29,826,-783,-553,-350,174,398,-198
649,0,2022-09-30T20:43:07.935493,3352338,-1475,29,826,-783,-553,-350,174,398,-198
650,0,2022-09-30T20:43:07.941553,3352344,-1470,-5,829,-1291,-671,-367,174,398,-198
651,0,2022-09-30T20:43:07.953008,3352355,-1470,-5,829,-1291,-671,-367,174,398,-198
652,0,2022-09-30T20:43:07.961957,3352365,-1472,-1,844,-1080,-535,-321,174,398,-198
653,0,2022-09-30T20:43:07.970923,3352372,-1472,-1,844,-1080,-535,-321,174,398,-198
654,0,2022-09-30T20:43:07.980787,3352383,-1468,17,834,-857,-540,-346,174,398,-198
655,0,2022-09-30T20:43:07.988679,3352391,-1468,17,834,-857,-540,-346,174,398,-198
656,0,2022-09-30T20:43:07.997698,3352398,-1468,17,834,-857,-540,-346,174,398,-198
657,0,2022-09-30T20:43:08.006064,3352409,-1464,-3,828,-579,-487,-197,174,398,-198
658,0,2022-09-30T20:43:08.013809,3352416,-1464,-3,828,-579,-487,-197,174,398,-198
659,0,2022-09-30T20:43:08.023246,3352426,-1468,22,827,-515,-402,-209,174,406,-188
660,0,2022-09-30T20:43:08.032213,3352434,-1468,22,827,-515,-402,-209,174,406,-188
661,0,2022-09-30T20:43:08.038014,3352440,-1468,22,827,-515,-402,-209,174,406,-188
662,0,2022-09-30T20:43:08.045569,3352446,-1463,5,860,-770,-407,-353,174,406,-188
663,0,2022-09-30T20:43:08.054245,3352457,-1463,5,860,-770,-407,-353,174,406,-188
664,0,2022-09-30T20:43:08.061016,3352464,-1469,17,805,-956,-800,-451,174,406,-188
665,0,2022-09-30T20:43:08.069325,3352471,-1469,17,805,-956,-800,-451,174,406,-188
666,0,2022-09-30T20:43:08.078349,3352481,-1489,17,832,-505,-267,-396,174,406,-188
667,0,2022-09-30T20:43:08.086919,3352489,-1489,17,832,-505,-267,-396,174,406,-188
668,0,2022-09-30T20:43:08.095088,3352496,-1489,17,832,-505,-267,-396,174,406,-188
669,0,2022-09-30T20:43:08.105759,3352508,-1493,-2,857,-119,-315,-360,174,406,-188
670,0,2022-09-30T20:43:08.113162,3352516,-1493,-2,857,-119,-315,-360,174,406,-188
671,0,2022-09-30T20:43:08.121961,3352524,-1480,-17,838,30,-783,-267,174,406,-188
672,0,2022-09-30T20:43:08.130439,3352534,-1480,-17,838,30,-783,-267,174,406,-188
673,0,2022-09-30T20:43:08.136004,3352539,-1480,-17,838,30,-783,-267,174,406,-188
674,0,2022-09-30T20:43:08.144908,3352547,-1451,44,831,295,-712,-326,164,406,-204
675,0,2022-09-30T20:43:08.153013,3352556,-1451,44,831,295,-712,-326,164,406,-204
676,0,2022-09-30T20:43:08.158579,3352561,-1444,58,834,722,-196,-400,164,406,-204
677,0,2022-09-30T20:43:08.165683,3352568,-1444,58,834,722,-196,-400,164,406,-204
678,0,2022-09-30T20:43:08.173639,3352577,-1444,58,834,722,-196,-400,164,406,-204
679,0,2022-09-30T20:43:08.181362,3352584,-1462,26,825,767,-52,-351,164,406,-204
680,0,2022-09-30T20:43:08.189325,3352592,-1462,26,825,767,-52,-351,164,406,-204
681,0,2022-09-30T20:43:08.195628,3352598,-1462,26,825,767,-52,-351,164,406,-204
682,0,2022-09-30T20:43:08.205109,3352607,-1477,29,826,-27,-462,-223,164,406,-204
683,0,2022-09-30T20:43:08.212310,3352614,-1477,29,826,-27,-462,-223,164,406,-204
684,0,2022-09-30T20:43:08.224659,3352627,-1467,44,838,-995,-908,-322,164,406,-204
685,0,2022-09-30T20:43:08.234259,3352637,-1467,44,838,-995,-908,-322,164,406,-204
686,0,2022-09-30T20:43:08.243790,3352644,-1459,36,857,-1094,-755,-753,164,406,-204
687,0,2022-09-30T20:43:08.254806,3352657,-1459,36,857,-1094,-755,-753,164,406,-204
688,0,2022-09-30T20:43:08.260558,3352663,-1462,17,848,-650,-650,-1118,164,406,-204
689,0,2022-09-30T20:43:08.268617,3352671,-1462,17,848,-650,-650,-1118,164,406,-204
690,0,2022-09-30T20:43:08.275168,3352678,-1462,17,848,-650,-650,-1118,164,406,-204
691,0,2022-09-30T20:43:08.282170,3352685,-1463,22,839,-261,-598,-1181,164,404,-194
692,0,2022-09-30T20:43:08.288020,3352690,-1463,22,839,-261,-598,-1181,164,404,-194
693,0,2022-09-30T20:43:08.294422,3352696,-1463,22,839,-261,-598,-1181,164,404,-194
694,0,2022-09-30T20:43:08.304911,3352708,-1466,19,852,-61,-441,-1099,164,404,-194
695,0,2022-09-30T20:43:08.311844,3352715,-1466,19,852,-61,-441,-1099,164,404,-194
696,0,2022-09-30T20:43:08.319839,3352722,-1462,20,859,-22,-548,-1004,164,404,-194
697,0,2022-09-30T20:43:08.327303,3352730,-1462,20,859,-22,-548,-1004,164,404,-194
698,0,2022-09-30T20:43:08.333302,3352736,-1462,20,859,-22,-548,-1004,164,404,-194
699,0,2022-09-30T20:43:08.340351,3352743,-1446,7,851,-20,-813,-1059,164,404,-194
700,0,2022-09-30T20:43:08.351047,3352754,-1446,7,851,-20,-813,-1059,164,404,-194
701,0,2022-09-30T20:43:08.358468,3352761,-1446,7,851,-20,-813,-1059,164,404,-194
702,0,2022-09-30T20:43:08.366851,3352769,-1448,17,822,31,-630,-1335,164,404,-194
703,0,2022-09-30T20:43:08.375854,3352778,-1448,17,822,31,-630,-1335,164,404,-194
704,0,2022-09-30T20:43:08.382562,3352785,-1460,11,866,46,-196,-1415,164,404,-194
705,0,2022-09-30T20:43:08.390039,3352793,-1460,11,866,46,-196,-1415,164,404,-194
706,0,2022-09-30T20:43:08.399420,3352802,-1470,12,867,-49,-597,-1330,171,407,-194
707,0,2022-09-30T20:43:08.409302,3352812,-1470,12,867,-49,-597,-1330,171,407,-187
708,0,2022-09-30T20:43:08.414927,3352817,-1470,12,867,-49,-597,-1330,171,407,-187
709,0,2022-09-30T20:43:08.424176,3352826,-1457,2,872,114,-902,-1103,171,407,-187
710,0,2022-09-30T20:43:08.431736,3352835,-1457,2,872,114,-902,-1103,171,407,-187
711,0,2022-09-30T20:43:08.437327,3352840,-1457,2,872,114,-902,-1103,171,407,-187
712,0,2022-09-30T20:43:08.447258,3352848,-1444,6,857,499,-779,-1194,171,407,-187
713,0,2022-09-30T20:43:08.455021,3352857,-1444,6,857,499,-779,-1194,171,407,-187
714,0,2022-09-30T20:43:08.462692,3352865,-1440,-2,863,872,-400,-1462,171,407,-187
715,0,2022-09-30T20:43:08.472180,3352875,-1440,-2,863,872,-400,-1462,171,407,-187
716,0,2022-09-30T20:43:08.480746,3352884,-1449,-15,851,707,-466,-1748,171,407,-187
717,0,2022-09-30T20:43:08.490099,3352893,-1449,-15,851,707,-466,-1748,171,407,-187
718,0,2022-09-30T20:43:08.498345,3352899,-1449,-15,851,707,-466,-1748,171,407,-187
719,0,2022-09-30T20:43:08.505826,3352908,-1449,-7,850,117,-610,-2056,171,407,-187
720,0,2022-09-30T20:43:08.513177,3352915,-1449,-7,850,117,-610,-2056,171,407,-187
721,0,2022-09-30T20:43:08.524220,3352924,-1441,4,875,-341,-691,-2300,171,407,-187
722,0,2022-09-30T20:43:08.533293,3352936,-1441,4,875,-341,-691,-2300,171,407,-187
723,0,2022-09-30T20:43:08.542080,3352943,-1437,-11,888,-326,-813,-2413,171,407,-187
724,0,2022-09-30T20:43:08.550327,3352953,-1437,-11,888,-326,-813,-2413,171,407,-187
725,0,2022-09-30T20:43:08.556215,3352958,-1437,-11,888,-326,-813,-2413,171,407,-187
726,0,2022-09-30T20:43:08.563600,3352967,-1436,-8,877,284,-760,-2213,171,407,-187
727,0,2022-09-30T20:43:08.571162,3352974,-1436,-8,877,284,-760,-2213,171,407,-187
728,0,2022-09-30T20:43:08.580143,3352982,-1433,-40,890,1097,-481,-1869,171,407,-187
729,0,2022-09-30T20:43:08.589407,3352991,-1433,-40,890,1097,-481,-1869,171,407,-187
730,0,2022-09-30T20:43:08.597524,3352998,-1433,-40,890,1097,-481,-1869,171,407,-187
731,0,2022-09-30T20:43:08.604729,3353008,-1437,-30,862,1746,-429,-2072,171,407,-187
732,0,2022-09-30T20:43:08.611928,3353015,-1437,-30,862,1746,-429,-2072,171,407,-187
733,0,2022-09-30T20:43:08.617508,3353020,-1437,-30,862,1746,-429,-2072,171,407,-187
734,0,2022-09-30T20:43:08.628622,3353031,-1444,-16,873,2173,9,-2434,171,407,-187
735,0,2022-09-30T20:43:08.635897,3353038,-1444,-16,873,2173,9,-2434,171,407,-187
736,0,2022-09-30T20:43:08.645356,3353047,-1446,-19,871,1807,-151,-2662,171,407,-187
737,0,2022-09-30T20:43:08.656027,3353059,-1446,-19,871,1807,-151,-2662,171,407,-187
738,0,2022-09-30T20:43:08.663024,3353066,-1442,-38,865,1190,-485,-2781,187,391,-191
739,0,2022-09-30T20:43:08.672334,3353072,-1442,-38,865,1190,-485,-2781,187,391,-191
740,0,2022-09-30T20:43:08.680921,3353083,-1442,-29,870,934,-494,-2803,187,391,-191
741,0,2022-09-30T20:43:08.689786,3353093,-1442,-29,870,934,-494,-2803,187,391,-191
742,0,2022-09-30T20:43:08.699752,3353103,-1431,-28,888,1255,-390,-2688,187,391,-191
743,0,2022-09-30T20:43:08.708592,3353111,-1431,-28,888,1255,-390,-2688,187,391,-191
744,0,2022-09-30T20:43:08.714607,3353117,-1431,-28,888,1255,-390,-2688,187,391,-191
745,0,2022-09-30T20:43:08.724851,3353127,-1438,-39,878,2080,-254,-2665,187,391,-191
746,0,2022-09-30T20:43:08.731745,3353135,-1438,-39,878,2080,-254,-2665,187,391,-191
747,0,2022-09-30T20:43:08.737980,3353141,-1438,-39,878,2080,-254,-2665,187,391,-191
748,0,2022-09-30T20:43:08.746249,3353146,-1442,-43,878,2780,-97,-2655,187,391,-191
749,0,2022-09-30T20:43:08.755622,3353158,-1442,-43,878,2780,-97,-2655,187,391,-191
750,0,2022-09-30T20:43:08.762229,3353164,-1438,-35,861,2968,-145,-2714,187,391,-191
751,0,2022-09-30T20:43:08.772800,3353175,-1438,-35,861,2968,-145,-2714,187,391,-191
752,0,2022-09-30T20:43:08.779003,3353181,-1438,-35,861,2968,-145,-2714,187,391,-191
753,0,2022-09-30T20:43:08.786280,3353189,-1442,-35,875,2966,-52,-2979,186,402,-186
754,0,2022-09-30T20:43:08.794503,3353196,-1442,-35,875,2966,-52,-2979,186,402,-186
755,0,2022-09-30T20:43:08.803283,3353205,-1446,-34,870,2896,-137,-3231,186,402,-186
756,0,2022-09-30T20:43:08.812011,3353214,-1446,-34,870,2896,-137,-3231,186,402,-186
757,0,2022-09-30T20:43:08.818484,3353221,-1446,-34,870,2896,-137,-3231,186,402,-186
758,0,2022-09-30T20:43:08.825555,3353229,-1442,-36,863,2851,-238,-3292,186,402,-186
759,0,2022-09-30T20:43:08.832302,3353235,-1442,-36,863,2851,-238,-3292,186,402,-186
760,0,2022-09-30T20:43:08.841039,3353244,-1442,-38,865,3019,-87,-3358,186,402,-186
761,0,2022-09-30T20:43:08.848200,3353250,-1442,-38,865,3019,-87,-3358,186,402,-186
762,0,2022-09-30T20:43:08.854223,3353256,-1442,-38,865,3019,-87,-3358,186,402,-186
763,0,2022-09-30T20:43:08.862687,3353266,-1443,-44,871,3138,-47,-3402,186,402,-186
764,0,2022-09-30T20:43:08.871158,3353273,-1443,-44,871,3138,-47,-3402,186,402,-186
765,0,2022-09-30T20:43:08.877644,3353280,-1443,-44,871,3138,-47,-3402,186,402,-186
766,0,2022-09-30T20:43:08.887214,3353290,-1446,-42,854,3302,-100,-3419,186,402,-186
767,0,2022-09-30T20:43:08.898214,3353297,-1446,-42,854,3302,-100,-3419,186,402,-186
768,0,2022-09-30T20:43:08.906615,3353310,-1448,-43,854,3566,-89,-3530,186,402,-186
769,0,2022-09-30T20:43:08.913955,3353317,-1448,-43,854,3566,-89,-3530,186,402,-186
770,0,2022-09-30T20:43:08.920614,3353322,-1452,-40,865,3809,4,-3707,188,386,-182
771,0,2022-09-30T20:43:08.930098,3353333,-1452,-40,865,3809,4,-3707,188,386,-182
772,0,2022-09-30T20:43:08.935970,3353338,-1452,-40,865,3809,4,-3707,188,386,-182
773,0,2022-09-30T20:43:08.944667,3353346,-1449,-27,865,3845,-27,-3867,188,386,-182
774,0,2022-09-30T20:43:08.954742,3353357,-1449,-27,865,3845,-27,-3867,188,386,-182
775,0,2022-09-30T20:43:08.960595,3353363,-1448,-36,858,3793,-126,-3968,188,386,-182
776,0,2022-09-30T20:43:08.969233,3353370,-1448,-36,858,3793,-126,-3968,188,386,-182
777,0,2022-09-30T20:43:08.980199,3353382,-1449,-44,853,3976,-84,-4002,188,386,-182
778,0,2022-09-30T20:43:08.989797,3353393,-1449,-44,853,3976,-84,-4002,188,386,-182
779,0,2022-09-30T20:43:08.996295,3353400,-1449,-44,853,3976,-84,-4002,188,386,-182
780,0,2022-09-30T20:43:09.001898,3353405,-1447,-38,856,4314,-43,-4022,188,386,-182
781,0,2022-09-30T20:43:09.008918,3353412,-1447,-38,856,4314,-43,-4022,188,386,-182
782,0,2022-09-30T20:43:09.014474,3353417,-1447,-38,856,4314,-43,-4022,188,386,-182
783,0,2022-09-30T20:43:09.021296,3353424,-1452,-27,848,4634,35,-4121,188,386,-182
784,0,2022-09-30T20:43:09.029726,3353433,-1452,-27,848,4634,35,-4121,188,386,-182
785,0,2022-09-30T20:43:09.035460,3353438,-1452,-27,848,4634,35,-4121,188,386,-182
786,0,2022-09-30T20:43:09.043742,3353445,-1452,-29,853,4719,80,-4232,210,386,-174
787,0,2022-09-30T20:43:09.053566,3353456,-1452,-29,853,4719,80,-4232,210,386,-174
788,0,2022-09-30T20:43:09.060478,3353463,-1450,-29,850,4604,-31,-4350,210,386,-174
789,0,2022-09-30T20:43:09.068221,3353470,-1450,-29,850,4604,-31,-4350,210,386,-174
790,0,2022-09-30T20:43:09.074853,3353478,-1450,-29,850,4604,-31,-4350,210,386,-174
791,0,2022-09-30T20:43:09.081816,3353485,-1453,-31,845,4693,-27,-4413,210,386,-174
792,0,2022-09-30T20:43:09.089231,3353492,-1453,-31,845,4693,-27,-4413,210,386,-174
793,0,2022-09-30T20:43:09.096575,3353497,-1453,-31,845,4693,-27,-4413,210,386,-174
794,0,2022-09-30T20:43:09.105314,3353507,-1454,-28,847,5004,81,-4470,210,386,-174
795,0,2022-09-30T20:43:09.112727,3353516,-1454,-28,847,5004,81,-4470,210,386,-174
796,0,2022-09-30T20:43:09.124742,3353528,-1457,-33,842,5314,217,-4529,210,386,-174
797,0,2022-09-30T20:43:09.132444,3353535,-1457,-33,842,5314,217,-4529,210,386,-174
798,0,2022-09-30T20:43:09.139905,3353542,-1468,-30,835,5392,177,-4634,210,386,-174
799,0,2022-09-30T20:43:09.149786,3353552,-1468,-30,835,5392,177,-4634,210,386,-174
800,0,2022-09-30T20:43:09.158338,3353561,-1468,-30,835,5392,177,-4634,210,386,-174
801,0,2022-09-30T20:43:09.165605,3353568,-1467,-23,840,5378,108,-4741,210,386,-174
802,0,2022-09-30T20:43:09.175505,3353578,-1467,-23,840,5378,108,-4741,210,386,-174
803,0,2022-09-30T20:43:09.182566,3353585,-1467,-23,840,5378,108,-4741,208,380,-168
804,0,2022-09-30T20:43:09.188544,3353591,-1467,-23,840,5378,108,-4741,208,380,-168
805,0,2022-09-30T20:43:09.196412,3353596,-1467,-23,840,5378,108,-4741,208,380,-168
806,0,2022-09-30T20:43:09.205393,3353608,-1464,-22,840,5642,-55,-4897,208,380,-168
807,0,2022-09-30T20:43:09.212961,3353616,-1464,-22,840,5642,-55,-4897,208,380,-168
808,0,2022-09-30T20:43:09.228811,3353631,-1462,-21,832,5966,47,-4996,208,380,-168
809,0,2022-09-30T20:43:09.235768,3353638,-1462,-21,832,5966,47,-4996,208,380,-168
810,0,2022-09-30T20:43:09.243376,3353646,-1467,-17,832,6215,211,-5117,208,380,-168
811,0,2022-09-30T20:43:09.255392,3353657,-1467,-17,832,6215,211,-5117,208,380,-168
812,0,2022-09-30T20:43:09.264159,3353667,-1476,-13,840,6216,125,-5160,208,380,-168
813,0,2022-09-30T20:43:09.275931,3353678,-1476,-13,840,6216,125,-5160,208,380,-168
814,0,2022-09-30T20:43:09.284004,3353687,-1471,-14,836,6150,-87,-5196,208,380,-168
815,0,2022-09-30T20:43:09.292461,3353694,-1471,-14,836,6150,-87,-5196,208,380,-168
816,0,2022-09-30T20:43:09.303302,3353706,-1472,-15,837,6251,-87,-5333,228,378,-166
817,0,2022-09-30T20:43:09.312039,3353714,-1472,-15,837,6251,-87,-5333,228,378,-166
818,0,2022-09-30T20:43:09.320791,3353723,-1469,-11,842,6427,-29,-5470,228,378,-166
819,0,2022-09-30T20:43:09.329893,3353733,-1469,-11,842,6427,-29,-5470,228,378,-166
820,0,2022-09-30T20:43:09.337723,3353740,-1469,-11,842,6427,-29,-5470,228,378,-166
821,0,2022-09-30T20:43:09.344455,3353746,-1471,-11,839,6659,6,-5512,228,378,-166
822,0,2022-09-30T20:43:09.353509,3353756,-1471,-11,839,6659,6,-5512,228,378,-166
823,0,2022-09-30T20:43:09.361946,3353764,-1474,-9,826,6803,-24,-5471,228,378,-166
824,0,2022-09-30T20:43:09.373280,3353776,-1474,-9,826,6803,-24,-5471,228,378,-166
825,0,2022-09-30T20:43:09.382719,3353786,-1468,-6,827,6799,-47,-5534,228,378,-166
826,0,2022-09-30T20:43:09.389671,3353793,-1468,-6,827,6799,-47,-5534,228,378,-166
827,0,2022-09-30T20:43:09.396723,3353798,-1468,-6,827,6799,-47,-5534,228,378,-166
828,0,2022-09-30T20:43:09.402445,3353805,-1471,-4,831,6797,-30,-5641,228,378,-166
829,0,2022-09-30T20:43:09.409765,3353812,-1471,-4,831,6797,-30,-5641,228,378,-166
830,0,2022-09-30T20:43:09.417411,3353819,-1471,-4,831,6797,-30,-5641,228,378,-166
831,0,2022-09-30T20:43:09.426230,3353829,-1475,-2,832,6809,-55,-5705,227,369,-155
832,0,2022-09-30T20:43:09.433550,3353836,-1475,-2,832,6809,-55,-5705,227,369,-155
833,0,2022-09-30T20:43:09.443551,3353845,-1471,-1,831,6827,-129,-5716,227,369,-155
834,0,2022-09-30T20:43:09.454081,3353857,-1471,-1,831,6827,-129,-5716,227,369,-155
835,0,2022-09-30T20:43:09.461172,3353864,-1470,4,828,6851,-46,-5819,227,369,-155
836,0,2022-09-30T20:43:09.469968,3353872,-1470,4,828,6851,-46,-5819,227,369,-155
837,0,2022-09-30T20:43:09.481360,3353884,-1473,4,826,6758,55,-5924,227,369,-155
838,0,2022-09-30T20:43:09.489571,3353892,-1473,4,826,6758,55,-5924,227,369,-155
839,0,2022-09-30T20:43:09.497363,3353897,-1473,4,826,6758,55,-5924,227,369,-155
840,0,2022-09-30T20:43:09.505839,3353909,-1475,10,835,6584,-9,-5959,227,369,-155
841,0,2022-09-30T20:43:09.512987,3353916,-1475,10,835,6584,-9,-5959,227,369,-155
842,0,2022-09-30T20:43:09.522232,3353922,-1476,-2,836,6588,-159,-5911,227,369,-155
843,0,2022-09-30T20:43:09.529147,3353932,-1476,-2,836,6588,-159,-5911,227,369,-155
844,0,2022-09-30T20:43:09.535555,3353938,-1476,-2,836,6588,-159,-5911,227,369,-155
845,0,2022-09-30T20:43:09.544781,3353946,-1473,4,842,6935,-137,-5890,227,369,-155
846,0,2022-09-30T20:43:09.556506,3353959,-1473,4,842,6935,-137,-5890,227,369,-155
847,0,2022-09-30T20:43:09.562778,3353965,-1474,9,829,7446,18,-5933,234,366,-138
848,0,2022-09-30T20:43:09.569896,3353972,-1474,9,829,7446,18,-5933,234,366,-138
849,0,2022-09-30T20:43:09.576543,3353978,-1474,9,829,7446,18,-5933,234,366,-138
850,0,2022-09-30T20:43:09.583666,3353987,-1477,15,827,7808,181,-5974,234,366,-138
851,0,2022-09-30T20:43:09.590469,3353993,-1477,15,827,7808,181,-5974,234,366,-138
852,0,2022-09-30T20:43:09.599490,3354002,-1477,15,827,7808,181,-5974,234,366,-138
853,0,2022-09-30T20:43:09.607944,3354010,-1478,21,819,7785,154,-5937,234,366,-138
854,0,2022-09-30T20:43:09.614812,3354017,-1478,21,819,7785,154,-5937,234,366,-138
855,0,2022-09-30T20:43:09.626697,3354030,-1483,27,814,7322,98,-6000,234,366,-138
856,0,2022-09-30T20:43:09.633913,3354037,-1483,27,814,7322,98,-6000,234,366,-138
857,0,2022-09-30T20:43:09.639833,3354043,-1483,27,814,7322,98,-6000,234,366,-138
858,0,2022-09-30T20:43:09.646242,3354049,-1486,20,812,6839,47,-6098,234,366,-138
859,0,2022-09-30T20:43:09.653884,3354056,-1486,20,812,6839,47,-6098,234,366,-138
860,0,2022-09-30T20:43:09.661114,3354063,-1488,9,817,6621,-37,-6210,234,366,-138
861,0,2022-09-30T20:43:09.669404,3354072,-1488,9,817,6621,-37,-6210,234,366,-138
862,0,2022-09-30T20:43:09.679305,3354082,-1488,9,817,6621,-37,-6210,234,366,-138
863,0,2022-09-30T20:43:09.686316,3354089,-1484,15,811,6770,-88,-6281,248,346,-124
864,0,2022-09-30T20:43:09.694009,3354096,-1484,15,811,6770,-88,-6281,248,346,-124
865,0,2022-09-30T20:43:09.703005,3354105,-1492,22,804,7048,5,-6237,248,346,-124
866,0,2022-09-30T20:43:09.710234,3354114,-1492,22,804,7048,5,-6237,248,346,-124
867,0,2022-09-30T20:43:09.720532,3354121,-1492,22,804,7048,5,-6237,248,346,-124
868,0,2022-09-30T20:43:09.729369,3354132,-1494,13,800,7147,185,-6210,248,346,-124
869,0,2022-09-30T20:43:09.737549,3354140,-1494,13,800,7147,185,-6210,248,346,-124
870,0,2022-09-30T20:43:09.744208,3354146,-1499,6,800,6834,192,-6405,248,346,-124
871,0,2022-09-30T20:43:09.754105,3354157,-1499,6,800,6834,192,-6405,248,346,-124
872,0,2022-09-30T20:43:09.762689,3354166,-1501,14,799,6307,29,-6561,248,346,-124
873,0,2022-09-30T20:43:09.770358,3354172,-1501,14,799,6307,29,-6561,248,346,-124
874,0,2022-09-30T20:43:09.781599,3354184,-1495,12,805,6030,-155,-6562,248,346,-124
875,0,2022-09-30T20:43:09.789571,3354192,-1495,12,805,6030,-155,-6562,248,346,-124
876,0,2022-09-30T20:43:09.797056,3354198,-1495,12,805,6030,-155,-6562,248,346,-124
877,0,2022-09-30T20:43:09.805379,3354208,-1496,14,802,6362,-121,-6428,248,346,-124
878,0,2022-09-30T20:43:09.812279,3354215,-1496,14,802,6362,-121,-6428,248,346,-124
879,0,2022-09-30T20:43:09.818937,3354220,-1496,14,802,6362,-121,-6428,248,346,-124
880,0,2022-09-30T20:43:09.830045,3354232,-1506,15,806,6975,119,-6266,247,335,-101
881,0,2022-09-30T20:43:09.836907,3354240,-1506,15,806,6975,119,-6266,247,335,-101
882,0,2022-09-30T20:43:09.844789,3354247,-1510,-4,791,7040,79,-6223,247,335,-101
883,0,2022-09-30T20:43:09.853156,3354256,-1510,-4,791,7040,79,-6223,247,335,-101
884,0,2022-09-30T20:43:09.858531,3354261,-1510,-4,791,7040,79,-6223,247,335,-101
885,0,2022-09-30T20:43:09.863656,3354266,-1511,-17,778,6771,29,-6296,247,335,-101
886,0,2022-09-30T20:43:09.874295,3354276,-1511,-17,778,6771,29,-6296,247,335,-101
887,0,2022-09-30T20:43:09.882351,3354284,-1511,-14,772,6448,156,-6431,247,335,-101
888,0,2022-09-30T20:43:09.889745,3354293,-1511,-14,772,6448,156,-6431,247,335,-101
889,0,2022-09-30T20:43:09.900437,3354303,-1525,-10,790,6152,166,-6468,247,335,-101
890,0,2022-09-30T20:43:09.909516,3354312,-1525,-10,790,6152,166,-6468,247,335,-101
891,0,2022-09-30T20:43:09.915305,3354318,-1525,-10,790,6152,166,-6468,247,335,-101
892,0,2022-09-30T20:43:09.926305,3354329,-1525,-9,798,5953,-118,-6422,247,335,-101
893,0,2022-09-30T20:43:09.934237,3354337,-1525,-9,798,5953,-118,-6422,247,335,-101
894,0,2022-09-30T20:43:09.939787,3354343,-1525,-9,798,5953,-118,-6422,247,335,-101
895,0,2022-09-30T20:43:09.946261,3354348,-1529,-8,803,6109,-231,-6301,246,320,-86
896,0,2022-09-30T20:43:09.956085,3354359,-1529,-8,803,6109,-231,-6301,246,320,-86
897,0,2022-09-30T20:43:09.962968,3354365,-1540,-27,842,6036,-204,-6199,246,320,-86
898,0,2022-09-30T20:43:09.969642,3354372,-1540,-27,842,6036,-204,-6199,246,320,-86
899,0,2022-09-30T20:43:09.978732,3354382,-1540,-27,842,6036,-204,-6199,246,320,-86
900,0,2022-09-30T20:43:09.984610,3354388,-1502,25,747,6076,-995,-6136,246,320,-86
901,0,2022-09-30T20:43:09.992506,3354394,-1502,25,747,6076,-995,-6136,246,320,-86
902,0,2022-09-30T20:43:09.998645,3354401,-1502,25,747,6076,-995,-6136,246,320,-86
903,0,2022-09-30T20:43:10.005801,3354408,-1500,-29,874,6011,-117,-6015,246,320,-86
904,0,2022-09-30T20:43:10.013270,3354416,-1500,-29,874,6011,-117,-6015,246,320,-86
905,0,2022-09-30T20:43:10.022746,3354425,-1480,100,809,6408,-763,-6191,246,320,-86
906,0,2022-09-30T20:43:10.032065,3354435,-1480,100,809,6408,-763,-6191,246,320,-86
907,0,2022-09-30T20:43:10.038836,3354441,-1480,100,809,6408,-763,-6191,246,320,-86
908,0,2022-09-30T20:43:10.049766,3354452,-1459,7,851,6416,-939,-5370,246,320,-86
909,0,2022-09-30T20:43:10.058684,3354462,-1459,7,851,6416,-939,-5370,246,320,-86
910,0,2022-09-30T20:43:10.065503,3354468,-1451,4,789,7029,-1081,-5015,246,320,-86
911,0,2022-09-30T20:43:10.074264,3354476,-1451,4,789,7029,-1081,-5015,246,320,-86
912,0,2022-09-30T20:43:10.083844,3354486,-1453,33,819,8690,209,-4806,243,299,-61
913,0,2022-09-30T20:43:10.089871,3354492,-1453,33,819,8690,209,-4806,243,299,-61
914,0,2022-09-30T20:43:10.097866,3354499,-1453,33,819,8690,209,-4806,243,299,-61
915,0,2022-09-30T20:43:10.106665,3354510,-1473,84,812,9422,756,-4681,243,299,-61
916,0,2022-09-30T20:43:10.113977,3354517,-1473,84,812,9422,756,-4681,243,299,-61
917,0,2022-09-30T20:43:10.125656,3354525,-1462,102,811,9720,1006,-4368,243,299,-61
918,0,2022-09-30T20:43:10.134253,3354537,-1462,102,811,9720,1006,-4368,243,299,-61
919,0,2022-09-30T20:43:10.141682,3354544,-1489,104,794,9234,906,-4306,243,299,-61
920,0,2022-09-30T20:43:10.147814,3354550,-1489,104,794,9234,906,-4306,243,299,-61
921,0,2022-09-30T20:43:10.153628,3354557,-1489,104,794,9234,906,-4306,243,299,-61
922,0,2022-09-30T20:43:10.163353,3354566,-1489,104,794,9234,906,-4306,243,299,-61
923,0,2022-09-30T20:43:10.170042,3354572,-1489,104,794,9234,906,-4306,243,299,-61
924,0,2022-09-30T20:43:10.177575,3354580,-1489,104,794,9234,906,-4306,243,299,-61
925,0,2022-09-30T20:43:10.184754,3354588,-1493,138,769,7284,264,-4550,243,299,-61
926,0,2022-09-30T20:43:10.192678,3354595,-1493,138,769,7284,264,-4550,243,299,-61
927,0,2022-09-30T20:43:10.201538,3354603,-1493,138,769,7284,264,-4550,243,299,-61
928,0,2022-09-30T20:43:10.209503,3354612,-1505,121,857,7369,608,-4713,225,307,-51
929,0,2022-09-30T20:43:10.220321,3354620,-1505,121,857,7369,608,-4713,225,307,-51
930,0,2022-09-30T20:43:10.229970,3354633,-1513,148,763,7678,-277,-4775,225,307,-51
931,0,2022-09-30T20:43:10.237535,3354640,-1513,148,763,7678,-277,-4775,225,307,-51
932,0,2022-09-30T20:43:10.245599,3354647,-1505,134,747,8154,317,-5146,225,307,-51
933,0,2022-09-30T20:43:10.253506,3354656,-1505,134,747,8154,317,-5146,225,307,-51
934,0,2022-09-30T20:43:10.259272,3354662,-1505,134,747,8154,317,-5146,225,307,-51
935,0,2022-09-30T20:43:10.265490,3354669,-1531,161,769,8909,1348,-5825,225,307,-51
936,0,2022-09-30T20:43:10.275833,3354679,-1531,161,769,8909,1348,-5825,225,307,-51
937,0,2022-09-30T20:43:10.285310,3354688,-1529,160,753,7984,626,-5885,225,307,-51
938,0,2022-09-30T20:43:10.292475,3354695,-1529,160,753,7984,626,-5885,225,307,-51
939,0,2022-09-30T20:43:10.303533,3354706,-1521,113,721,5811,-784,-5332,225,307,-51
940,0,2022-09-30T20:43:10.312082,3354715,-1521,113,721,5811,-784,-5332,225,307,-51
941,0,2022-09-30T20:43:10.319456,3354720,-1521,113,721,5811,-784,-5332,225,307,-51
942,0,2022-09-30T20:43:10.328818,3354731,-1535,127,710,4563,-804,-5689,211,285,-31
943,0,2022-09-30T20:43:10.337996,3354741,-1535,127,710,4563,-804,-5689,211,285,-31
944,0,2022-09-30T20:43:10.345034,3354747,-1552,154,788,3334,-526,-5984,211,285,-31
945,0,2022-09-30T20:43:10.354344,3354757,-1552,154,788,3334,-526,-5984,211,285,-31
946,0,2022-09-30T20:43:10.361635,3354764,-1535,148,797,2727,-1297,-5783,211,285,-31
947,0,2022-09-30T20:43:10.369682,3354772,-1535,148,797,2727,-1297,-5783,211,285,-31
948,0,2022-09-30T20:43:10.377996,3354781,-1535,148,797,2727,-1297,-5783,211,285,-31
949,0,2022-09-30T20:43:10.385699,3354788,-1518,107,760,3155,-1645,-5603,211,285,-31
950,0,2022-09-30T20:43:10.392944,3354796,-1518,107,760,3155,-1645,-5603,211,285,-31
951,0,2022-09-30T20:43:10.402521,3354805,-1507,105,769,4103,-912,-5507,211,285,-31
952,0,2022-09-30T20:43:10.411019,3354814,-1507,105,769,4103,-912,-5507,211,285,-31
953,0,2022-09-30T20:43:10.417579,3354820,-1507,105,769,4103,-912,-5507,211,285,-31
954,0,2022-09-30T20:43:10.427405,3354830,-1512,112,789,4896,-281,-5466,211,285,-31
955,0,2022-09-30T20:43:10.434927,3354838,-1512,112,789,4896,-281,-5466,211,285,-31
956,0,2022-09-30T20:43:10.443832,3354846,-1515,124,783,4969,-470,-5396,211,285,-31
957,0,2022-09-30T20:43:10.453301,3354856,-1515,124,783,4969,-470,-5396,211,285,-31
958,0,2022-09-30T20:43:10.460725,3354863,-1515,124,783,4969,-470,-5396,211,285,-31
959,0,2022-09-30T20:43:10.466337,3354869,-1512,141,774,4757,-486,-5271,207,281,-25
960,0,2022-09-30T20:43:10.476908,3354878,-1512,141,774,4757,-486,-5271,207,281,-25
961,0,2022-09-30T20:43:10.484569,3354887,-1531,112,740,4126,-368,-5355,207,281,-25
962,0,2022-09-30T20:43:10.492888,3354895,-1531,112,740,4126,-368,-5355,207,281,-25
963,0,2022-09-30T20:43:10.503185,3354906,-1532,119,813,3463,173,-5172,207,281,-25
964,0,2022-09-30T20:43:10.511579,3354914,-1532,119,813,3463,173,-5172,207,281,-25
965,0,2022-09-30T20:43:10.520277,3354920,-1532,119,813,3463,173,-5172,207,281,-25
966,0,2022-09-30T20:43:10.528583,3354932,-1540,115,802,3110,-719,-4836,207,281,-25
967,0,2022-09-30T20:43:10.536367,3354939,-1540,115,802,3110,-719,-4836,207,281,-25
968,0,2022-09-30T20:43:10.544687,3354946,-1514,97,773,3290,-1077,-4254,207,281,-25
969,0,2022-09-30T20:43:10.553911,3354956,-1514,97,773,3290,-1077,-4254,207,281,-25
970,0,2022-09-30T20:43:10.563756,3354967,-1496,98,778,4497,-211,-3991,207,281,-25
971,0,2022-09-30T20:43:10.571473,3354974,-1496,98,778,4497,-211,-3991,207,281,-25
972,0,2022-09-30T20:43:10.580588,3354984,-1496,98,778,4497,-211,-3991,207,281,-25
973,0,2022-09-30T20:43:10.587891,3354991,-1537,102,770,5494,578,-3988,199,275,-15
974,0,2022-09-30T20:43:10.596096,3354997,-1537,102,770,5494,578,-3988,199,275,-15
975,0,2022-09-30T20:43:10.604006,3355006,-1519,123,794,5532,472,-3566,199,275,-15
976,0,2022-09-30T20:43:10.611445,3355014,-1519,123,794,5532,472,-3566,199,275,-15
977,0,2022-09-30T20:43:10.617851,3355020,-1519,123,794,5532,472,-3566,199,275,-15
978,0,2022-09-30T20:43:10.624841,3355027,-1520,117,742,4501,-237,-3796,199,275,-15
979,0,2022-09-30T20:43:10.632933,3355036,-1520,117,742,4501,-237,-3796,199,275,-15
980,0,2022-09-30T20:43:10.640630,3355043,-1520,117,742,4501,-237,-3796,199,275,-15
981,0,2022-09-30T20:43:10.648595,3355051,-1527,132,751,3231,-7,-3961,199,275,-15
982,0,2022-09-30T20:43:10.656860,3355060,-1527,132,751,3231,-7,-3961,199,275,-15
983,0,2022-09-30T20:43:10.662575,3355065,-1537,153,780,2363,-117,-3885,199,275,-15
984,0,2022-09-30T20:43:10.670850,3355072,-1537,153,780,2363,-117,-3885,199,275,-15
985,0,2022-09-30T20:43:10.679285,3355082,-1537,153,780,2363,-117,-3885,199,275,-15
986,0,2022-09-30T20:43:10.686084,3355089,-1534,161,760,2402,-641,-3640,199,275,-15
987,0,2022-09-30T20:43:10.694445,3355096,-1534,161,760,2402,-641,-3640,199,275,-15
988,0,2022-09-30T20:43:10.705372,3355108,-1529,136,777,2762,-597,-3097,199,275,-15
989,0,2022-09-30T20:43:10.712789,3355115,-1529,136,777,2762,-597,-3097,199,275,-15
990,0,2022-09-30T20:43:10.720566,3355121,-1529,136,777,2762,-597,-3097,199,275,-15
991,0,2022-09-30T20:43:10.729528,3355132,-1524,137,757,2961,-541,-2793,191,267,-7
992,0,2022-09-30T20:43:10.736819,3355140,-1524,137,757,2961,-541,-2793,191,267,-7
993,0,2022-09-30T20:43:10.744891,3355147,-1503,151,747,3159,-157,-2737,191,267,-7
994,0,2022-09-30T20:43:10.755499,3355158,-1503,151,747,3159,-157,-2737,191,267,-7
995,0,2022-09-30T20:43:10.761277,3355164,-1530,124,777,2251,328,-2693,191,267,-7
996,0,2022-09-30T20:43:10.770084,3355171,-1530,124,777,2251,328,-2693,191,267,-7
997,0,2022-09-30T20:43:10.776484,3355180,-1530,124,777,2251,328,-2693,191,267,-7
998,0,2022-09-30T20:43:10.786057,3355189,-1528,141,761,1104,315,-2900,191,267,-7
999,0,2022-09-30T20:43:10.795031,3355197,-1528,141,761,1104,315,-2900,191,267,-7
1000,0,2022-09-30T20:43:10.804987,3355208,-1555,146,747,780,337,-2791,191,267,-7
1001,0,2022-09-30T20:43:10.812283,3355215,-1555,146,747,780,337,-2791,191,267,-7
1002,0,2022-09-30T20:43:10.820701,3355220,-1555,146,747,780,337,-2791,191,267,-7
1003,0,2022-09-30T20:43:10.830452,3355234,-1562,155,767,618,135,-2010,191,267,-7
1004,0,2022-09-30T20:43:10.837301,3355240,-1562,155,767,618,135,-2010,191,267,-7
1005,0,2022-09-30T20:43:10.846093,3355247,-1540,183,757,1063,-398,-1342,181,269,-5
1006,0,2022-09-30T20:43:10.855531,3355258,-1540,183,757,1063,-398,-1342,181,269,-5
1007,0,2022-09-30T20:43:10.862551,3355266,-1539,156,719,1899,-418,-1564,181,269,-5
1008,0,2022-09-30T20:43:10.870313,3355273,-1539,156,719,1899,-418,-1564,181,269,-5
1009,0,2022-09-30T20:43:10.877484,3355279,-1539,156,719,1899,-418,-1564,181,269,-5
1010,0,2022-09-30T20:43:10.885499,3355288,-1540,159,728,1985,188,-2017,181,269,-5
1011,0,2022-09-30T20:43:10.894298,3355296,-1540,159,728,1985,188,-2017,181,269,-5
1012,0,2022-09-30T20:43:10.904790,3355308,-1549,158,741,935,114,-2463,181,269,-5
1013,0,2022-09-30T20:43:10.911954,3355315,-1549,158,741,935,114,-2463,181,269,-5
1014,0,2022-09-30T20:43:10.920371,3355322,-1549,158,741,935,114,-2463,181,269,-5
1015,0,2022-09-30T20:43:10.926218,3355329,-1533,165,708,-570,-539,-2660,181,269,-5
1016,0,2022-09-30T20:43:10.934760,3355337,-1533,165,708,-570,-539,-2660,181,269,-5
1017,0,2022-09-30T20:43:10.941498,3355344,-1568,161,752,-1651,-295,-2440,181,269,-5
1018,0,2022-09-30T20:43:10.950975,3355354,-1568,161,752,-1651,-295,-2440,181,269,-5
1019,0,2022-09-30T20:43:10.959609,3355363,-1568,161,752,-1651,-295,-2440,181,269,-5
1020,0,2022-09-30T20:43:10.968210,3355370,-1559,169,791,-1780,-936,-1539,181,269,-5
1021,0,2022-09-30T20:43:10.979184,3355382,-1559,169,791,-1780,-936,-1539,181,269,-5
1022,0,2022-09-30T20:43:10.989018,3355392,-1547,137,743,-1771,-1500,-940,174,274,-10
1023,0,2022-09-30T20:43:10.997261,3355400,-1547,137,743,-1771,-1500,-940,174,274,-10
1024,0,2022-09-30T20:43:11.003044,3355406,-1534,122,745,-1064,-1021,-375,174,274,-10
1025,0,2022-09-30T20:43:11.010372,3355413,-1534,122,745,-1064,-1021,-375,174,274,-10
1026,0,2022-09-30T20:43:11.016088,3355419,-1534,122,745,-1064,-1021,-375,174,274,-10
1027,0,2022-09-30T20:43:11.027429,3355430,-1522,155,741,-3,-213,-285,174,274,-10
1028,0,2022-09-30T20:43:11.034930,3355438,-1522,155,741,-3,-213,-285,174,274,-10
1029,0,2022-09-30T20:43:11.045026,3355447,-1554,139,750,308,54,75,174,274,-10
1030,0,2022-09-30T20:43:11.055116,3355458,-1554,139,750,308,54,75,174,274,-10
1031,0,2022-09-30T20:43:11.063466,3355466,-1543,151,773,-715,-329,62,174,274,-10
1032,0,2022-09-30T20:43:11.071499,3355473,-1543,151,773,-715,-329,62,174,274,-10
1033,0,2022-09-30T20:43:11.079664,3355483,-1543,151,773,-715,-329,62,174,274,-10
1034,0,2022-09-30T20:43:11.088806,3355492,-1531,162,730,-1799,-1070,134,174,274,-10
1035,0,2022-09-30T20:43:11.099460,3355502,-1531,162,730,-1799,-1070,134,174,274,-10
1036,0,2022-09-30T20:43:11.108170,3355511,-1538,152,745,-2021,-600,293,178,266,-8
1037,0,2022-09-30T20:43:11.115414,3355518,-1538,152,745,-2021,-600,293,178,266,-8
1038,0,2022-09-30T20:43:11.125339,3355528,-1549,145,761,-2165,-365,414,178,266,-8
1039,0,2022-09-30T20:43:11.134023,3355537,-1549,145,761,-2165,-365,414,178,266,-8
1040,0,2022-09-30T20:43:11.145625,3355547,-1544,138,734,-2474,-665,601,178,266,-8
1041,0,2022-09-30T20:43:11.154943,3355558,-1544,138,734,-2474,-665,601,178,266,-8
1042,0,2022-09-30T20:43:11.162602,3355565,-1542,146,736,-2521,-541,761,178,266,-8
1043,0,2022-09-30T20:43:11.170709,3355572,-1542,146,736,-2521,-541,761,178,266,-8
1044,0,2022-09-30T20:43:11.180720,3355584,-1542,146,736,-2521,-541,761,178,266,-8
1045,0,2022-09-30T20:43:11.189136,3355592,-1540,150,746,-2864,-452,1034,178,266,-8
1046,0,2022-09-30T20:43:11.200095,3355603,-1540,150,746,-2864,-452,1034,178,266,-8
1047,0,2022-09-30T20:43:11.205656,3355609,-1537,138,733,-3411,-771,1329,178,266,-8
1048,0,2022-09-30T20:43:11.215367,3355617,-1537,138,733,-3411,-771,1329,178,266,-8
1049,0,2022-09-30T20:43:11.227474,3355630,-1546,124,743,-3650,-702,1477,183,271,-1
1050,0,2022-09-30T20:43:11.236000,3355638,-1546,124,743,-3650,-702,1477,183,271,-1
1051,0,2022-09-30T20:43:11.245282,3355648,-1553,140,761,-3778,-660,1522,183,271,-1
1052,0,2022-09-30T20:43:11.255598,3355658,-1553,140,761,-3778,-660,1522,183,271,-1
1053,0,2022-09-30T20:43:11.262942,3355666,-1551,132,750,-3843,-910,1661,183,271,-1
1054,0,2022-09-30T20:43:11.269700,3355671,-1551,132,750,-3843,-910,1661,183,271,-1
1055,0,2022-09-30T20:43:11.276295,3355679,-1551,132,750,-3843,-910,1661,183,271,-1
1056,0,2022-09-30T20:43:11.286188,3355688,-1540,126,744,-3811,-893,1815,183,271,-1
1057,0,2022-09-30T20:43:11.294585,3355697,-1540,126,744,-3811,-893,1815,183,271,-1
1058,0,2022-09-30T20:43:11.309583,3355712,-1537,131,748,-3843,-761,1961,183,271,-1
1059,0,2022-09-30T20:43:11.316851,3355719,-1537,131,748,-3843,-761,1961,183,271,-1
1060,0,2022-09-30T20:43:11.324529,3355726,-1539,143,741,-4153,-772,2166,183,271,-1
1061,0,2022-09-30T20:43:11.332967,3355736,-1539,143,741,-4153,-772,2166,183,271,-1
1062,0,2022-09-30T20:43:11.338871,3355742,-1539,143,741,-4153,-772,2166,183,271,-1
1063,0,2022-09-30T20:43:11.348988,3355751,-1537,142,742,-4683,-814,2336,183,271,-1
1064,0,2022-09-30T20:43:11.356957,3355760,-1537,142,742,-4683,-814,2336,183,271,-1
1065,0,2022-09-30T20:43:11.364097,3355767,-1537,142,742,-4683,-814,2336,194,278,-14
1066,0,2022-09-30T20:43:11.371647,3355772,-1537,142,742,-4683,-814,2336,194,278,-14
1067,0,2022-09-30T20:43:11.381709,3355785,-1537,142,742,-4683,-814,2336,194,278,-14
1068,0,2022-09-30T20:43:11.389813,3355793,-1547,108,753,-5507,-976,2602,194,278,-14
1069,0,2022-09-30T20:43:11.403340,3355806,-1547,116,749,-5471,-1019,2797,194,278,-14
1070,0,2022-09-30T20:43:11.412421,3355815,-1547,116,749,-5471,-1019,2797,194,278,-14
1071,0,2022-09-30T20:43:11.418587,3355821,-1547,116,749,-5471,-1019,2797,194,278,-14
1072,0,2022-09-30T20:43:11.427534,3355831,-1535,123,743,-5295,-863,2962,194,278,-14
1073,0,2022-09-30T20:43:11.435927,3355839,-1535,123,743,-5295,-863,2962,194,278,-14
1074,0,2022-09-30T20:43:11.445267,3355847,-1536,125,735,-5282,-670,3112,194,278,-14
1075,0,2022-09-30T20:43:11.453564,3355856,-1536,125,735,-5282,-670,3112,194,278,-14
1076,0,2022-09-30T20:43:11.463932,3355867,-1541,119,738,-5585,-627,3353,194,278,-14
1077,0,2022-09-30T20:43:11.471783,3355872,-1541,119,738,-5585,-627,3353,194,278,-14
1078,0,2022-09-30T20:43:11.481120,3355884,-1541,119,738,-5585,-627,3353,194,278,-14
1079,0,2022-09-30T20:43:11.488273,3355891,-1546,112,736,-6185,-808,3609,201,277,-19
1080,0,2022-09-30T20:43:11.496829,3355898,-1546,112,736,-6185,-808,3609,201,277,-19
1081,0,2022-09-30T20:43:11.506329,3355909,-1549,102,735,-6911,-1090,3801,201,277,-19
1082,0,2022-09-30T20:43:11.514716,3355918,-1549,102,735,-6911,-1090,3801,201,277,-19
1083,0,2022-09-30T20:43:11.522358,3355925,-1549,102,735,-6911,-1090,3801,201,277,-19
1084,0,2022-09-30T20:43:11.528543,3355931,-1543,105,744,-7299,-1184,3897,201,277,-19
1085,0,2022-09-30T20:43:11.536257,3355939,-1543,105,744,-7299,-1184,3897,201,277,-19
1086,0,2022-09-30T20:43:11.546128,3355948,-1543,109,751,-7238,-1038,3932,201,277,-19
1087,0,2022-09-30T20:43:11.555900,3355958,-1543,109,751,-7238,-1038,3932,201,277,-19
1088,0,2022-09-30T20:43:11.567616,3355970,-1545,107,735,-7033,-970,4095,201,277,-19
1089,0,2022-09-30T20:43:11.575111,3355978,-1545,107,735,-7033,-970,4095,201,277,-19
1090,0,2022-09-30T20:43:11.583990,3355986,-1541,95,734,-7090,-905,4277,201,277,-19
1091,0,2022-09-30T20:43:11.590955,3355994,-1541,95,734,-7090,-905,4277,201,277,-19
1092,0,2022-09-30T20:43:11.599680,3356003,-1541,95,734,-7090,-905,4277,201,277,-19
1093,0,2022-09-30T20:43:11.607505,3356011,-1544,90,728,-7594,-924,4384,201,277,-19
1094,0,2022-09-30T20:43:11.628268,3356017,-1544,90,728,-7594,-924,4384,201,277,-19
1095,0,2022-09-30T20:43:11.636641,3356039,-1545,99,741,-8322,-1028,4431,209,285,-33
1096,0,2022-09-30T20:43:11.645850,3356047,-1545,85,745,-8710,-1178,4611,209,285,-33
1097,0,2022-09-30T20:43:11.656037,3356059,-1545,85,745,-8710,-1178,4611,209,285,-33
1098,0,2022-09-30T20:43:11.662664,3356065,-1542,67,746,-8698,-1378,4828,209,285,-33
1099,0,2022-09-30T20:43:11.671254,3356072,-1542,67,746,-8698,-1378,4828,209,285,-33
1100,0,2022-09-30T20:43:11.680407,3356083,-1542,67,746,-8698,-1378,4828,209,285,-33
1101,0,2022-09-30T20:43:11.686079,3356089,-1534,75,742,-8414,-1298,4995,209,285,-33
1102,0,2022-09-30T20:43:11.693552,3356096,-1534,75,742,-8414,-1298,4995,209,285,-33
1103,0,2022-09-30T20:43:11.703826,3356107,-1541,82,746,-8180,-986,5138,209,285,-33
1104,0,2022-09-30T20:43:11.712869,3356115,-1541,82,746,-8180,-986,5138,209,285,-33
1105,0,2022-09-30T20:43:11.719613,3356123,-1541,82,746,-8180,-986,5138,209,285,-33
1106,0,2022-09-30T20:43:11.726896,3356130,-1543,80,747,-8362,-958,5296,209,285,-33
1107,0,2022-09-30T20:43:11.733710,3356137,-1543,80,747,-8362,-958,5296,209,285,-33
1108,0,2022-09-30T20:43:11.742031,3356144,-1543,80,747,-8362,-958,5296,209,285,-33
1109,0,2022-09-30T20:43:11.749081,3356151,-1536,75,734,-8829,-1149,5386,225,293,-41
1110,0,2022-09-30T20:43:11.758441,3356162,-1536,75,734,-8829,-1149,5386,225,293,-41
1111,0,2022-09-30T20:43:11.763807,3356167,-1533,71,733,-9286,-1197,5399,225,293,-41
1112,0,2022-09-30T20:43:11.771377,3356174,-1533,71,733,-9286,-1197,5399,225,293,-41
1113,0,2022-09-30T20:43:11.777572,3356181,-1533,71,733,-9286,-1197,5399,225,293,-41
1114,0,2022-09-30T20:43:11.786349,3356189,-1536,69,736,-9587,-1139,5458,225,293,-41
1115,0,2022-09-30T20:43:11.794890,3356196,-1536,69,736,-9587,-1139,5458,225,293,-41
1116,0,2022-09-30T20:43:11.805861,3356209,-1542,62,747,-9732,-1125,5603,225,293,-41
1117,0,2022-09-30T20:43:11.813168,3356216,-1542,62,747,-9732,-1125,5603,225,293,-41
1118,0,2022-09-30T20:43:11.820393,3356222,-1542,62,747,-9732,-1125,5603,225,293,-41
1119,0,2022-09-30T20:43:11.832229,3356235,-1543,49,750,-9825,-1223,5733,225,293,-41
1120,0,2022-09-30T20:43:11.840456,3356243,-1543,49,750,-9825,-1223,5733,225,293,-41
1121,0,2022-09-30T20:43:11.849145,3356251,-1543,49,750,-9825,-1223,5733,225,293,-41
1122,0,2022-09-30T20:43:11.855444,3356258,-1543,49,750,-9825,-1223,5733,225,293,-41
1123,0,2022-09-30T20:43:11.864207,3356267,-1532,36,743,-9881,-1280,5789,244,300,-58
1124,0,2022-09-30T20:43:11.871821,3356274,-1532,36,743,-9881,-1280,5789,244,300,-58
1125,0,2022-09-30T20:43:11.885368,3356288,-1534,41,744,-9894,-1303,5748,244,300,-58
1126,0,2022-09-30T20:43:11.898402,3356301,-1534,41,744,-9894,-1303,5748,244,300,-58
1127,0,2022-09-30T20:43:11.907225,3356310,-1525,41,748,-9931,-1310,5883,244,300,-58
1128,0,2022-09-30T20:43:11.914048,3356317,-1525,41,748,-9931,-1310,5883,244,300,-58
1129,0,2022-09-30T20:43:11.919750,3356322,-1525,41,748,-9931,-1310,5883,244,300,-58
1130,0,2022-09-30T20:43:11.926067,3356328,-1535,36,744,-10013,-1237,6072,244,300,-58
1131,0,2022-09-30T20:43:11.934725,3356338,-1535,36,744,-10013,-1237,6072,244,300,-58
1132,0,2022-09-30T20:43:11.945826,3356349,-1544,25,749,-10219,-1167,6253,244,300,-58
1133,0,2022-09-30T20:43:11.953921,3356357,-1544,25,749,-10219,-1167,6253,244,300,-58
1134,0,2022-09-30T20:43:11.960304,3356362,-1544,25,749,-10219,-1167,6253,244,300,-58
1135,0,2022-09-30T20:43:11.965838,3356368,-1525,19,746,-10437,-1174,6436,244,300,-58
1136,0,2022-09-30T20:43:11.974437,3356377,-1525,19,746,-10437,-1174,6436,244,300,-58
1137,0,2022-09-30T20:43:11.985340,3356388,-1520,-3,735,-10869,-1366,6331,244,300,-58
1138,0,2022-09-30T20:43:11.994549,3356396,-1520,-3,735,-10869,-1366,6331,244,300,-58
1139,0,2022-09-30T20:43:12.003907,3356406,-1525,-9,744,-11249,-1444,5984,249,317,-79
1140,0,2022-09-30T20:43:12.013306,3356417,-1525,-9,744,-11249,-1444,5984,249,317,-79
1141,0,2022-09-30T20:43:12.022010,3356422,-1525,-9,744,-11249,-1444,5984,249,317,-79
1142,0,2022-09-30T20:43:12.031399,3356434,-1527,14,774,-11481,-1450,5831,249,317,-79
1143,0,2022-09-30T20:43:12.038353,3356441,-1527,14,774,-11481,-1450,5831,249,317,-79
1144,0,2022-09-30T20:43:12.045646,3356447,-1530,14,773,-11473,-1805,6171,249,317,-79
1145,0,2022-09-30T20:43:12.053730,3356456,-1530,14,773,-11473,-1805,6171,249,317,-79
1146,0,2022-09-30T20:43:12.061350,3356464,-1530,14,773,-11473,-1805,6171,249,317,-79
1147,0,2022-09-30T20:43:12.067873,3356471,-1518,0,754,-10853,-1607,6828,249,317,-79
1148,0,2022-09-30T20:43:12.076940,3356480,-1518,0,754,-10853,-1607,6828,249,317,-79
1149,0,2022-09-30T20:43:12.087410,3356490,-1520,-35,761,-10233,-1105,7063,249,317,-79
1150,0,2022-09-30T20:43:12.095480,3356497,-1520,-35,761,-10233,-1105,7063,249,317,-79
1151,0,2022-09-30T20:43:12.106038,3356509,-1523,-35,744,-10323,-1098,6601,249,317,-79
1152,0,2022-09-30T20:43:12.113090,3356516,-1523,-35,744,-10323,-1098,6601,249,317,-79
1153,0,2022-09-30T20:43:12.120275,3356522,-1523,-35,744,-10323,-1098,6601,249,317,-79
1154,0,2022-09-30T20:43:12.129649,3356532,-1523,-35,744,-10323,-1098,6601,253,325,-103
1155,0,2022-09-30T20:43:12.137300,3356539,-1523,-35,744,-10323,-1098,6601,253,325,-103
1156,0,2022-09-30T20:43:12.143688,3356547,-1520,-4,775,-11335,-1478,6465,253,325,-103
1157,0,2022-09-30T20:43:12.153225,3356556,-1520,-4,775,-11335,-1478,6465,253,325,-103
1158,0,2022-09-30T20:43:12.161981,3356565,-1520,-4,775,-11335,-1478,6465,253,325,-103
1159,0,2022-09-30T20:43:12.170557,3356572,-1510,-12,780,-11299,-1660,6927,253,325,-103
1160,0,2022-09-30T20:43:12.180283,3356583,-1510,-12,780,-11299,-1660,6927,253,325,-103
1161,0,2022-09-30T20:43:12.187871,3356591,-1492,-36,780,-10881,-1449,7092,253,325,-103
1162,0,2022-09-30T20:43:12.195193,3356598,-1492,-36,780,-10881,-1449,7092,253,325,-103
1163,0,2022-09-30T20:43:12.203992,3356607,-1493,-42,723,-10530,-1554,7019,253,325,-103
1164,0,2022-09-30T20:43:12.211335,3356614,-1493,-42,723,-10530,-1554,7019,253,325,-103
1165,0,2022-09-30T20:43:12.219380,3356620,-1493,-42,723,-10530,-1554,7019,253,325,-103
1166,0,2022-09-30T20:43:12.229700,3356633,-1532,-18,734,-10228,-516,6518,253,325,-103
1167,0,2022-09-30T20:43:12.236826,3356640,-1532,-18,734,-10228,-516,6518,253,325,-103
1168,0,2022-09-30T20:43:12.245444,3356647,-1563,-25,819,-10987,-397,6089,253,325,-103
1169,0,2022-09-30T20:43:12.255317,3356658,-1563,-25,819,-10987,-397,6089,253,325,-103
1170,0,2022-09-30T20:43:12.265801,3356668,-1542,-15,795,-12185,-2178,6383,245,343,-127
1171,0,2022-09-30T20:43:12.275144,3356678,-1542,-15,795,-12185,-2178,6383,245,343,-127
1172,0,2022-09-30T20:43:12.284789,3356688,-1498,-43,736,-11919,-2595,7323,245,343,-127
1173,0,2022-09-30T20:43:12.291730,3356695,-1498,-43,736,-11919,-2595,7323,245,343,-127
1174,0,2022-09-30T20:43:12.303169,3356706,-1484,-68,725,-10304,-1219,7295,245,343,-127
1175,0,2022-09-30T20:43:12.312321,3356716,-1484,-68,725,-10304,-1219,7295,245,343,-127
1176,0,2022-09-30T20:43:12.320452,3356723,-1484,-68,725,-10304,-1219,7295,245,343,-127
1177,0,2022-09-30T20:43:12.330830,3356734,-1530,-36,754,-9536,69,6398,245,343,-127
1178,0,2022-09-30T20:43:12.338075,3356741,-1530,-36,754,-9536,69,6398,245,343,-127
1179,0,2022-09-30T20:43:12.346142,3356748,-1537,-48,825,-11003,-969,6349,245,343,-127
1180,0,2022-09-30T20:43:12.356463,3356760,-1537,-48,825,-11003,-969,6349,245,343,-127
1181,0,2022-09-30T20:43:12.363305,3356766,-1495,-49,743,-12451,-3028,6756,245,343,-127
1182,0,2022-09-30T20:43:12.371413,3356774,-1495,-49,743,-12451,-3028,6756,245,343,-127
1183,0,2022-09-30T20:43:12.377396,3356780,-1495,-49,743,-12451,-3028,6756,245,343,-127
1184,0,2022-09-30T20:43:12.384365,3356787,-1487,-42,772,-11512,-1858,6767,238,360,-140
1185,0,2022-09-30T20:43:12.394593,3356795,-1487,-42,772,-11512,-1858,6767,238,360,-140
1186,0,2022-09-30T20:43:12.401905,3356805,-1487,-42,772,-11512,-1858,6767,238,360,-140
1187,0,2022-09-30T20:43:12.408509,3356812,-1505,-53,837,-10220,-877,6374,238,360,-140
1188,0,2022-09-30T20:43:12.415597,3356818,-1505,-53,837,-10220,-877,6374,238,360,-140
1189,0,2022-09-30T20:43:12.421383,3356824,-1505,-53,837,-10220,-877,6374,238,360,-140
1190,0,2022-09-30T20:43:12.429085,3356830,-1505,-54,757,-10127,-1874,6452,238,360,-140
1191,0,2022-09-30T20:43:12.436240,3356839,-1505,-54,757,-10127,-1874,6452,238,360,-140
1192,0,2022-09-30T20:43:12.447775,3356849,-1494,-39,776,-9701,-1287,6788,238,360,-140
1193,0,2022-09-30T20:43:12.456009,3356859,-1494,-39,776,-9701,-1287,6788,238,360,-140
1194,0,2022-09-30T20:43:12.463093,3356866,-1494,-39,776,-9701,-1287,6788,238,360,-140
1195,0,2022-09-30T20:43:12.470036,3356871,-1504,-18,789,-9608,-865,6636,238,360,-140
1196,0,2022-09-30T20:43:12.479562,3356882,-1504,-18,789,-9608,-865,6636,238,360,-140
1197,0,2022-09-30T20:43:12.486701,3356890,-1510,-46,796,-10483,-1163,6572,238,360,-140
1198,0,2022-09-30T20:43:12.494101,3356897,-1510,-46,796,-10483,-1163,6572,238,360,-140
1199,0,2022-09-30T20:43:12.507408,3356910,-1502,-79,774,-11657,-1772,6548,238,360,-140
1200,0,2022-09-30T20:43:12.515388,3356918,-1502,-79,774,-11657,-1772,6548,238,360,-140
1201,0,2022-09-30T20:43:12.527502,3356931,-1491,-55,818,-11502,-1616,6281,221,375,-161
1202,0,2022-09-30T20:43:12.536252,3356939,-1491,-55,818,-11502,-1616,6281,221,375,-161
1203,0,2022-09-30T20:43:12.545952,3356948,-1489,-31,835,-10287,-1452,6225,221,375,-161
1204,0,2022-09-30T20:43:12.555498,3356958,-1489,-31,835,-10287,-1452,6225,221,375,-161
1205,0,2022-09-30T20:43:12.566025,3356968,-1478,-41,828,-9272,-1632,6747,221,375,-161
1206,0,2022-09-30T20:43:12.574648,3356977,-1478,-41,828,-9272,-1632,6747,221,375,-161
1207,0,2022-09-30T20:43:12.584664,3356988,-1466,-47,795,-8888,-1709,7283,221,375,-161
1208,0,2022-09-30T20:43:12.591728,3356995,-1466,-47,795,-8888,-1709,7283,221,375,-161
1209,0,2022-09-30T20:43:12.599783,3357000,-1466,-47,795,-8888,-1709,7283,221,375,-161
1210,0,2022-09-30T20:43:12.609363,3357012,-1461,-38,792,-8631,-1125,6944,221,375,-161
1211,0,2022-09-30T20:43:12.616789,3357020,-1461,-38,792,-8631,-1125,6944,221,375,-161
1212,0,2022-09-30T20:43:12.631465,3357034,-1474,-17,823,-8772,-719,6160,221,375,-161
1213,0,2022-09-30T20:43:12.638551,3357041,-1474,-17,823,-8772,-719,6160,221,375,-161
1214,0,2022-09-30T20:43:12.646134,3357048,-1488,-3,815,-9541,-1113,6107,217,377,-165
1215,0,2022-09-30T20:43:12.656281,3357060,-1488,-3,815,-9541,-1113,6107,217,377,-165
1216,0,2022-09-30T20:43:12.665531,3357069,-1501,-10,783,-9681,-998,6670,217,377,-165
1217,0,2022-09-30T20:43:12.676178,3357079,-1501,-10,783,-9681,-998,6670,217,377,-165
1218,0,2022-09-30T20:43:12.684959,3357088,-1501,-18,816,-9360,-100,6661,217,377,-165
1219,0,2022-09-30T20:43:12.692082,3357095,-1501,-18,816,-9360,-100,6661,217,377,-165
1220,0,2022-09-30T20:43:12.700962,3357104,-1501,-18,816,-9360,-100,6661,217,377,-165
1221,0,2022-09-30T20:43:12.707954,3357111,-1529,-11,836,-9162,-83,6378,217,377,-165
1222,0,2022-09-30T20:43:12.716491,3357119,-1529,-11,836,-9162,-83,6378,217,377,-165
1223,0,2022-09-30T20:43:12.731288,3357134,-1510,-1,752,-8902,-1096,6443,217,377,-165
1224,0,2022-09-30T20:43:12.738623,3357142,-1510,-1,752,-8902,-1096,6443,217,377,-165
1225,0,2022-09-30T20:43:12.748613,3357151,-1500,-46,758,-8815,-747,6481,217,377,-165
1226,0,2022-09-30T20:43:12.755693,3357159,-1500,-46,758,-8815,-747,6481,217,377,-165
1227,0,2022-09-30T20:43:12.761214,3357164,-1500,-46,758,-8815,-747,6481,217,377,-165
1228,0,2022-09-30T20:43:12.769887,3357171,-1509,-8,738,-8926,-73,5948,203,391,-185
1229,0,2022-09-30T20:43:12.780344,3357184,-1509,-8,738,-8926,-73,5948,203,391,-185
1230,0,2022-09-30T20:43:12.787722,3357191,-1517,12,795,-10329,-228,5563,203,391,-185
1231,0,2022-09-30T20:43:12.795617,3357198,-1517,12,795,-10329,-228,5563,203,391,-185
1232,0,2022-09-30T20:43:12.805548,3357208,-1525,-6,770,-11878,-1285,5641,203,391,-185
1233,0,2022-09-30T20:43:12.811293,3357214,-1525,-6,770,-11878,-1285,5641,203,391,-185
1234,0,2022-09-30T20:43:12.816996,3357220,-1525,-6,770,-11878,-1285,5641,203,391,-185
1235,0,2022-09-30T20:43:12.828063,3357232,-1516,-27,792,-12166,-1544,5662,203,391,-185
1236,0,2022-09-30T20:43:12.835216,3357238,-1516,-27,792,-12166,-1544,5662,203,391,-185
1237,0,2022-09-30T20:43:12.842523,3357246,-1516,-27,792,-12166,-1544,5662,203,391,-185
1238,0,2022-09-30T20:43:12.849302,3357252,-1516,-35,792,-11517,-1537,5289,203,391,-185
1239,0,2022-09-30T20:43:12.854430,3357257,-1516,-35,792,-11517,-1537,5289,203,391,-185
1240,0,2022-09-30T20:43:12.860075,3357263,-1516,-35,792,-11517,-1537,5289,203,391,-185
1241,0,2022-09-30T20:43:12.865551,3357268,-1511,-35,783,-10836,-1500,5051,203,391,-185
1242,0,2022-09-30T20:43:12.877580,3357278,-1511,-35,783,-10836,-1500,5051,203,391,-185
1243,0,2022-09-30T20:43:12.888698,3357291,-1489,-27,805,-10370,-1529,4874,203,391,-185
1244,0,2022-09-30T20:43:12.897565,3357300,-1489,-27,805,-10370,-1529,4874,203,391,-185
1245,0,2022-09-30T20:43:12.907956,3357310,-1487,-40,793,-10245,-1878,4775,181,403,-193
1246,0,2022-09-30T20:43:12.915059,3357318,-1487,-40,793,-10245,-1878,4775,181,403,-193
1247,0,2022-09-30T20:43:12.925106,3357328,-1494,-78,819,-10315,-2094,4785,181,403,-193
1248,0,2022-09-30T20:43:12.933824,3357336,-1494,-78,819,-10315,-2094,4785,181,403,-193
1249,0,2022-09-30T20:43:12.943981,3357347,-1471,-42,798,-9980,-2594,4599,181,403,-193
1250,0,2022-09-30T20:43:12.956132,3357359,-1471,-42,798,-9980,-2594,4599,181,403,-193
1251,0,2022-09-30T20:43:12.964397,3357367,-1461,-62,835,-9416,-2315,4348,181,403,-193
1252,0,2022-09-30T20:43:12.973842,3357376,-1461,-62,835,-9416,-2315,4348,181,403,-193
1253,0,2022-09-30T20:43:12.979996,3357383,-1461,-62,835,-9416,-2315,4348,181,403,-193
1254,0,2022-09-30T20:43:12.987801,3357390,-1451,-57,832,-8100,-1711,3935,181,403,-193
1255,0,2022-09-30T20:43:12.996236,3357399,-1451,-57,832,-8100,-1711,3935,181,403,-193
1256,0,2022-09-30T20:43:13.005625,3357409,-1460,-69,848,-7195,-1244,3706,181,403,-193
1257,0,2022-09-30T20:43:13.012973,3357416,-1460,-69,848,-7195,-1244,3706,181,403,-193
1258,0,2022-09-30T20:43:13.018931,3357422,-1460,-69,848,-7195,-1244,3706,181,403,-193
1259,0,2022-09-30T20:43:13.031573,3357433,-1456,-65,834,-7465,-1658,3692,175,399,-195
1260,0,2022-09-30T20:43:13.038871,3357442,-1456,-65,834,-7465,-1658,3692,175,399,-195
1261,0,2022-09-30T20:43:13.045866,3357449,-1448,-84,858,-7820,-1745,3535,175,399,-195
1262,0,2022-09-30T20:43:13.054558,3357458,-1448,-84,858,-7820,-1745,3535,175,399,-195
1263,0,2022-09-30T20:43:13.066447,3357468,-1461,-57,856,-7768,-1938,3256,175,399,-195
1264,0,2022-09-30T20:43:13.078235,3357481,-1461,-57,856,-7768,-1938,3256,175,399,-195
1265,0,2022-09-30T20:43:13.088730,3357491,-1436,-74,885,-7173,-2033,3625,175,399,-195
1266,0,2022-09-30T20:43:13.100501,3357503,-1436,-74,885,-7173,-2033,3625,175,399,-195
1267,0,2022-09-30T20:43:13.109779,3357512,-1416,-87,860,-5999,-1910,3891,175,399,-195
1268,0,2022-09-30T20:43:13.116795,3357519,-1416,-87,860,-5999,-1910,3891,175,399,-195
1269,0,2022-09-30T20:43:13.128481,3357532,-1424,-90,853,-4964,-1480,3754,175,399,-195
1270,0,2022-09-30T20:43:13.135770,3357539,-1424,-90,853,-4964,-1480,3754,175,399,-195
1271,0,2022-09-30T20:43:13.145725,3357548,-1418,-68,859,-4650,-1107,3487,175,399,-195
1272,0,2022-09-30T20:43:13.154516,3357557,-1418,-68,859,-4650,-1107,3487,175,399,-195
1273,0,2022-09-30T20:43:13.164086,3357568,-1430,-50,890,-4943,-937,3296,161,407,-195
1274,0,2022-09-30T20:43:13.171995,3357575,-1430,-50,890,-4943,-937,3296,161,407,-191
1275,0,2022-09-30T20:43:13.180440,3357584,-1430,-50,890,-4943,-937,3296,161,407,-191
1276,0,2022-09-30T20:43:13.186387,3357589,-1427,-71,884,-5500,-1261,3098,161,407,-191
1277,0,2022-09-30T20:43:13.194160,3357597,-1427,-71,884,-5500,-1261,3098,161,407,-191
1278,0,2022-09-30T20:43:13.203146,3357606,-1427,-71,884,-5500,-1261,3098,161,407,-191
1279,0,2022-09-30T20:43:13.208368,3357612,-1417,-95,862,-5830,-1506,2481,161,407,-191
1280,0,2022-09-30T20:43:13.215355,3357619,-1417,-95,862,-5830,-1506,2481,161,407,-191
1281,0,2022-09-30T20:43:13.230617,3357633,-1426,-95,875,-5907,-1176,1872,161,407,-191
1282,0,2022-09-30T20:43:13.242997,3357645,-1426,-95,875,-5907,-1176,1872,161,407,-191
1283,0,2022-09-30T20:43:13.250243,3357654,-1427,-87,896,-6269,-1152,1692,161,407,-191
1284,0,2022-09-30T20:43:13.257532,3357661,-1427,-87,896,-6269,-1152,1692,161,407,-191
1285,0,2022-09-30T20:43:13.266650,3357670,-1421,-101,886,-6567,-1543,1776,161,407,-191
1286,0,2022-09-30T20:43:13.277867,3357681,-1421,-101,886,-6567,-1543,1776,161,407,-191
1287,0,2022-09-30T20:43:13.288843,3357691,-1414,-110,886,-6470,-1795,1836,152,408,-188
1288,0,2022-09-30T20:43:13.296439,3357699,-1414,-110,886,-6470,-1795,1836,152,408,-188
1289,0,2022-09-30T20:43:13.307591,3357710,-1408,-124,896,-6090,-1577,1732,152,408,-188
1290,0,2022-09-30T20:43:13.314278,3357717,-1408,-124,896,-6090,-1577,1732,152,408,-188
1291,0,2022-09-30T20:43:13.322021,3357724,-1408,-124,896,-6090,-1577,1732,152,408,-188
1292,0,2022-09-30T20:43:13.329863,3357732,-1410,-124,908,-5660,-1401,1503,152,408,-188
1293,0,2022-09-30T20:43:13.337283,3357741,-1410,-124,908,-5660,-1401,1503,152,408,-188
1294,0,2022-09-30T20:43:13.342873,3357746,-1410,-124,908,-5660,-1401,1503,152,408,-188
1295,0,2022-09-30T20:43:13.351462,3357752,-1408,-120,915,-5177,-1329,1456,152,408,-188
1296,0,2022-09-30T20:43:13.359982,3357763,-1408,-120,915,-5177,-1329,1456,152,408,-188
1297,0,2022-09-30T20:43:13.365417,3357768,-1404,-129,899,-4747,-1450,1418,152,408,-188
1298,0,2022-09-30T20:43:13.373836,3357776,-1404,-129,899,-4747,-1450,1418,152,408,-188
1299,0,2022-09-30T20:43:13.384237,3357788,-1404,-129,899,-4747,-1450,1418,152,408,-188
1300,0,2022-09-30T20:43:13.392885,3357796,-1399,-143,901,-4559,-1445,1273,152,408,-188
1301,0,2022-09-30T20:43:13.404835,3357808,-1397,-134,917,-4619,-1492,1019,152,408,-188
1302,0,2022-09-30T20:43:13.413605,3357816,-1397,-134,917,-4619,-1492,1019,152,408,-188
1303,0,2022-09-30T20:43:13.419914,3357822,-1397,-134,917,-4619,-1492,1019,152,408,-188
1304,0,2022-09-30T20:43:13.427596,3357831,-1385,-129,927,-4683,-1705,836,151,403,-199
1305,0,2022-09-30T20:43:13.435031,3357838,-1385,-129,927,-4683,-1705,836,151,403,-199
1306,0,2022-09-30T20:43:13.441844,3357845,-1385,-129,927,-4683,-1705,836,151,403,-199
1307,0,2022-09-30T20:43:13.448567,3357851,-1370,-134,926,-4203,-1680,672,151,403,-199
1308,0,2022-09-30T20:43:13.457466,3357860,-1370,-134,926,-4203,-1680,672,151,403,-199
1309,0,2022-09-30T20:43:13.470698,3357874,-1372,-150,919,-3340,-1255,535,151,403,-199
1310,0,2022-09-30T20:43:13.479588,3357882,-1372,-150,919,-3340,-1255,535,151,403,-199
1311,0,2022-09-30T20:43:13.485895,3357889,-1376,-156,918,-2533,-862,401,151,403,-199
1312,0,2022-09-30T20:43:13.492645,3357895,-1376,-156,918,-2533,-862,401,151,403,-199
1313,0,2022-09-30T20:43:13.501232,3357904,-1376,-156,918,-2533,-862,401,151,403,-199
1314,0,2022-09-30T20:43:13.510627,3357914,-1378,-148,926,-2037,-644,298,151,403,-199
1315,0,2022-09-30T20:43:13.517849,3357921,-1378,-148,926,-2037,-644,298,151,403,-199
1316,0,2022-09-30T20:43:13.527205,3357931,-1384,-142,924,-1847,-680,155,151,403,-199
1317,0,2022-09-30T20:43:13.534633,3357937,-1384,-142,924,-1847,-680,155,151,403,-199
1318,0,2022-09-30T20:43:13.545949,3357949,-1377,-153,926,-1679,-725,-60,151,421,-189
1319,0,2022-09-30T20:43:13.553679,3357957,-1377,-153,926,-1679,-725,-60,151,421,-189
1320,0,2022-09-30T20:43:13.559646,3357963,-1377,-153,926,-1679,-725,-60,151,421,-189
1321,0,2022-09-30T20:43:13.566729,3357970,-1382,-157,925,-1347,-671,-303,151,421,-189
1322,0,2022-09-30T20:43:13.576275,3357979,-1382,-157,925,-1347,-671,-303,151,421,-189
1323,0,2022-09-30T20:43:13.585505,3357988,-1384,-152,919,-923,-525,-523,151,421,-189
1324,0,2022-09-30T20:43:13.592125,3357996,-1384,-152,919,-923,-525,-523,151,421,-189
1325,0,2022-09-30T20:43:13.599953,3358003,-1384,-152,919,-923,-525,-523,151,421,-189
1326,0,2022-09-30T20:43:13.608689,3358012,-1385,-147,913,-557,-432,-697,151,421,-189
1327,0,2022-09-30T20:43:13.616086,3358019,-1385,-147,913,-557,-432,-697,151,421,-189
1328,0,2022-09-30T20:43:13.627772,3358031,-1382,-155,917,-414,-486,-846,151,421,-189
1329,0,2022-09-30T20:43:13.635183,3358039,-1382,-155,917,-414,-486,-846,151,421,-189
1330,0,2022-09-30T20:43:13.645281,3358048,-1382,-155,917,-414,-486,-846,151,421,-189
1331,0,2022-09-30T20:43:13.654918,3358058,-1382,-156,916,-295,-421,-1064,151,421,-189
1332,0,2022-09-30T20:43:13.666661,3358069,-1386,-156,924,-140,-391,-1239,151,409,-185
1333,0,2022-09-30T20:43:13.677129,3358081,-1386,-156,924,-140,-391,-1239,151,409,-185
1334,0,2022-09-30T20:43:13.687903,3358091,-1386,-157,930,252,-453,-1383,151,409,-185
1335,0,2022-09-30T20:43:13.696104,3358098,-1386,-157,930,252,-453,-1383,151,409,-185
1336,0,2022-09-30T20:43:13.707912,3358111,-1381,-160,921,854,-357,-1627,151,409,-185
1337,0,2022-09-30T20:43:13.715289,3358118,-1381,-160,921,854,-357,-1627,151,409,-185
1338,0,2022-09-30T20:43:13.726503,3358129,-1341,-141,891,1204,-333,-1921,151,409,-185
1339,0,2022-09-30T20:43:13.734496,3358138,-1341,-141,891,1204,-333,-1921,151,409,-185
1340,0,2022-09-30T20:43:13.740154,3358143,-1341,-141,891,1204,-333,-1921,151,409,-185
1341,0,2022-09-30T20:43:13.746301,3358149,-1384,-198,923,592,173,-2100,151,409,-185
1342,0,2022-09-30T20:43:13.756061,3358159,-1384,-198,923,592,173,-2100,151,409,-185
1343,0,2022-09-30T20:43:13.763346,3358167,-1384,-198,923,592,173,-2100,151,409,-185
1344,0,2022-09-30T20:43:13.769603,3358172,-1399,-129,921,328,-187,-2312,151,409,-185
1345,0,2022-09-30T20:43:13.782024,3358185,-1399,-129,921,328,-187,-2312,151,409,-185
1346,0,2022-09-30T20:43:13.791720,3358195,-1389,-158,935,300,-600,-2360,151,409,-185
1347,0,2022-09-30T20:43:13.804816,3358208,-1374,-187,915,910,-854,-2386,151,409,-185
1348,0,2022-09-30T20:43:13.812773,3358216,-1374,-187,915,910,-854,-2386,164,414,-182
1349,0,2022-09-30T20:43:13.820564,3358223,-1374,-187,915,910,-854,-2386,164,414,-182
1350,0,2022-09-30T20:43:13.827848,3358231,-1375,-172,918,2785,147,-2796,164,414,-182
1351,0,2022-09-30T20:43:13.834709,3358238,-1375,-172,918,2785,147,-2796,164,414,-182
1352,0,2022-09-30T20:43:13.841145,3358244,-1375,-172,918,2785,147,-2796,164,414,-182
1353,0,2022-09-30T20:43:13.847349,3358251,-1391,-165,924,3784,676,-2940,164,414,-182
1354,0,2022-09-30T20:43:13.855870,3358259,-1391,-165,924,3784,676,-2940,164,414,-182
1355,0,2022-09-30T20:43:13.863960,3358267,-1391,-165,924,3784,676,-2940,164,414,-182
1356,0,2022-09-30T20:43:13.870695,3358273,-1390,-170,909,3855,377,-2897,164,414,-182
1357,0,2022-09-30T20:43:13.879261,3358282,-1390,-170,909,3855,377,-2897,164,414,-182
1358,0,2022-09-30T20:43:13.885597,3358287,-1390,-170,909,3855,377,-2897,164,414,-182
1359,0,2022-09-30T20:43:13.891846,3358295,-1390,-157,891,3664,293,-3141,164,414,-182
1360,0,2022-09-30T20:43:13.902156,3358306,-1390,-157,891,3664,293,-3141,164,414,-182
1361,0,2022-09-30T20:43:13.907425,3358310,-1393,-158,897,3115,183,-3315,164,414,-182
1362,0,2022-09-30T20:43:13.914286,3358317,-1393,-158,897,3115,183,-3315,164,414,-182
1363,0,2022-09-30T20:43:13.922014,3358324,-1393,-158,897,3115,183,-3315,164,414,-182
1364,0,2022-09-30T20:43:13.928036,3358331,-1390,-150,913,3191,191,-3488,159,405,-187
1365,0,2022-09-30T20:43:13.935586,3358338,-1390,-150,913,3191,191,-3488,159,405,-187
1366,0,2022-09-30T20:43:13.945676,3358349,-1402,-162,916,3772,323,-3669,159,405,-187
1367,0,2022-09-30T20:43:13.952922,3358356,-1402,-162,916,3772,323,-3669,159,405,-187
1368,0,2022-09-30T20:43:13.958689,3358361,-1402,-162,916,3772,323,-3669,159,405,-187
1369,0,2022-09-30T20:43:13.966827,3358370,-1378,-153,865,4119,147,-3810,159,405,-187
1370,0,2022-09-30T20:43:13.977154,3358381,-1378,-153,865,4119,147,-3810,159,405,-187
1371,0,2022-09-30T20:43:13.988517,3358391,-1390,-188,902,4150,863,-3973,159,405,-187
1372,0,2022-09-30T20:43:13.997170,3358400,-1390,-188,902,4150,863,-3973,159,405,-187
1373,0,2022-09-30T20:43:14.004452,3358407,-1390,-188,902,4150,863,-3973,159,405,-187
1374,0,2022-09-30T20:43:14.011148,3358413,-1412,-132,901,4358,912,-4134,159,405,-187
1375,0,2022-09-30T20:43:14.018414,3358422,-1412,-132,901,4358,912,-4134,159,405,-187
1376,0,2022-09-30T20:43:14.030587,3358434,-1412,-152,920,4351,395,-3966,159,405,-187
1377,0,2022-09-30T20:43:14.038228,3358441,-1412,-152,920,4351,395,-3966,159,405,-187
1378,0,2022-09-30T20:43:14.048667,3358450,-1415,-157,834,4691,-19,-3997,159,405,-187
1379,0,2022-09-30T20:43:14.057684,3358460,-1415,-157,834,4691,-19,-3997,159,405,-187
1380,0,2022-09-30T20:43:14.064834,3358469,-1415,-156,899,5698,1119,-4189,159,405,-187
1381,0,2022-09-30T20:43:14.075813,3358478,-1415,-156,899,5698,1119,-4189,173,401,-189
1382,0,2022-09-30T20:43:14.087285,3358490,-1432,-114,870,6336,1251,-4536,173,401,-189
1383,0,2022-09-30T20:43:14.094470,3358497,-1432,-114,870,6336,1251,-4536,173,401,-189
1384,0,2022-09-30T20:43:14.109967,3358513,-1429,-150,875,5995,833,-4467,173,401,-189
1385,0,2022-09-30T20:43:14.117491,3358521,-1429,-150,875,5995,833,-4467,173,401,-189
1386,0,2022-09-30T20:43:14.136498,3358539,-1423,-141,847,5763,355,-4683,173,401,-189
1387,0,2022-09-30T20:43:14.147302,3358548,-1428,-137,859,5653,531,-4790,173,401,-189
1388,0,2022-09-30T20:43:14.156462,3358560,-1428,-137,859,5653,531,-4790,173,401,-189
1389,0,2022-09-30T20:43:14.164054,3358567,-1428,-137,859,5653,531,-4790,173,401,-189
1390,0,2022-09-30T20:43:14.172706,3358573,-1425,-117,865,5715,497,-4891,173,401,-189
1391,0,2022-09-30T20:43:14.181054,3358584,-1425,-117,865,5715,497,-4891,173,401,-189
1392,0,2022-09-30T20:43:14.189170,3358593,-1429,-119,873,6254,631,-4969,188,396,-192
1393,0,2022-09-30T20:43:14.197007,3358600,-1429,-119,873,6254,631,-4969,188,396,-192
1394,0,2022-09-30T20:43:14.206493,3358610,-1435,-118,848,6870,665,-5088,188,396,-192
1395,0,2022-09-30T20:43:14.214938,3358617,-1435,-118,848,6870,665,-5088,188,396,-192
1396,0,2022-09-30T20:43:14.227947,3358631,-1441,-122,845,7379,816,-5239,188,396,-192
1397,0,2022-09-30T20:43:14.233256,3358637,-1441,-122,845,7379,816,-5239,188,396,-192
1398,0,2022-09-30T20:43:14.242016,3358645,-1441,-122,845,7379,816,-5239,188,396,-192
1399,0,2022-09-30T20:43:14.254193,3358657,-1447,-113,841,7695,918,-5512,188,396,-192
1400,0,2022-09-30T20:43:14.260384,3358662,-1447,-113,841,7695,918,-5512,188,396,-192
1401,0,2022-09-30T20:43:14.267508,3358670,-1446,-104,849,7683,703,-5679,188,396,-192
1402,0,2022-09-30T20:43:14.277928,3358682,-1446,-104,849,7683,703,-5679,188,396,-192
1403,0,2022-09-30T20:43:14.288729,3358692,-1448,-104,845,7627,393,-5744,188,396,-192
1404,0,2022-09-30T20:43:14.297666,3358699,-1448,-104,845,7627,393,-5744,188,396,-192
1405,0,2022-09-30T20:43:14.308400,3358711,-1448,-103,844,7895,372,-5816,201,395,-181
1406,0,2022-09-30T20:43:14.315638,3358718,-1448,-103,844,7895,372,-5816,201,395,-181
1407,0,2022-09-30T20:43:14.324582,3358725,-1448,-103,844,7895,372,-5816,201,395,-181
1408,0,2022-09-30T20:43:14.330783,3358734,-1456,-80,846,8444,592,-5999,201,395,-181
1409,0,2022-09-30T20:43:14.338153,3358741,-1456,-80,846,8444,592,-5999,201,395,-181
1410,0,2022-09-30T20:43:14.347175,3358749,-1463,-68,841,8967,879,-6257,201,395,-181
1411,0,2022-09-30T20:43:14.356353,3358759,-1463,-68,841,8967,879,-6257,201,395,-181
1412,0,2022-09-30T20:43:14.365447,3358769,-1463,-68,841,8967,879,-6257,201,395,-181
1413,0,2022-09-30T20:43:14.372175,3358775,-1463,-68,841,8967,879,-6257,201,395,-181
1414,0,2022-09-30T20:43:14.382925,3358786,-1463,-68,841,8967,879,-6257,201,395,-181
1415,0,2022-09-30T20:43:14.391005,3358794,-1463,-85,826,8941,650,-6489,201,395,-181
1416,0,2022-09-30T20:43:14.400631,3358802,-1463,-85,826,8941,650,-6489,201,395,-181
1417,0,2022-09-30T20:43:14.407866,3358811,-1466,-85,816,8796,367,-6398,201,395,-181
1418,0,2022-09-30T20:43:14.413203,3358817,-1466,-85,816,8796,367,-6398,201,395,-181
1419,0,2022-09-30T20:43:14.419650,3358822,-1466,-85,816,8796,367,-6398,201,395,-181
1420,0,2022-09-30T20:43:14.428384,3358831,-1467,-74,817,8865,280,-6423,201,395,-181
1421,0,2022-09-30T20:43:14.435454,3358838,-1467,-74,817,8865,280,-6423,201,395,-181
1422,0,2022-09-30T20:43:14.442363,3358845,-1467,-74,817,8865,280,-6423,201,395,-181
1423,0,2022-09-30T20:43:14.449647,3358853,-1465,-51,826,9102,368,-6573,204,388,-174
1424,0,2022-09-30T20:43:14.456715,3358860,-1465,-51,826,9102,368,-6573,204,388,-174
1425,0,2022-09-30T20:43:14.464144,3358867,-1465,-51,826,9102,368,-6573,204,388,-174
1426,0,2022-09-30T20:43:14.470945,3358874,-1474,-42,832,9437,422,-6780,204,388,-174
1427,0,2022-09-30T20:43:14.480452,3358883,-1474,-42,832,9437,422,-6780,204,388,-174
1428,0,2022-09-30T20:43:14.487591,3358891,-1477,-37,831,9668,417,-6939,204,388,-174
1429,0,2022-09-30T20:43:14.495660,3358898,-1477,-37,831,9668,417,-6939,204,388,-174
1430,0,2022-09-30T20:43:14.506316,3358909,-1480,-52,821,9688,325,-7027,204,388,-174
1431,0,2022-09-30T20:43:14.514154,3358917,-1480,-52,821,9688,325,-7027,204,388,-174
1432,0,2022-09-30T20:43:14.521997,3358923,-1480,-52,821,9688,325,-7027,204,388,-174
1433,0,2022-09-30T20:43:14.531002,3358935,-1482,-60,805,9416,229,-7116,204,388,-174
1434,0,2022-09-30T20:43:14.538120,3358941,-1482,-60,805,9416,229,-7116,204,388,-174
1435,0,2022-09-30T20:43:14.548197,3358948,-1482,-60,805,9416,229,-7116,204,388,-174
1436,0,2022-09-30T20:43:14.554805,3358958,-1481,-43,812,8927,192,-7252,204,388,-174
1437,0,2022-09-30T20:43:14.564872,3358968,-1481,-43,812,8927,192,-7252,204,388,-174
1438,0,2022-09-30T20:43:14.574218,3358978,-1476,-40,831,8347,-8,-7274,219,375,-161
1439,0,2022-09-30T20:43:14.581520,3358985,-1476,-40,831,8347,-8,-7274,219,375,-161
1440,0,2022-09-30T20:43:14.588562,3358992,-1473,-36,822,8250,-216,-7297,219,375,-161
1441,0,2022-09-30T20:43:14.596205,3358999,-1473,-36,822,8250,-216,-7297,219,375,-161
1442,0,2022-09-30T20:43:14.607362,3359010,-1477,-22,817,8859,-64,-7257,219,375,-161
1443,0,2022-09-30T20:43:14.620152,3359023,-1477,-22,817,8859,-64,-7257,219,375,-161
1444,0,2022-09-30T20:43:14.627465,3359031,-1482,-19,822,9566,311,-7146,219,375,-161
