,imu,server_time,arduino_time,ax,ay,az,gx,gy,gz,mx,my,mz
0,2,2022-09-30T20:43:02.667988,3347069,-5528,377,-568,-119,-80,-71,22,418,-170
1,2,2022-09-30T20:43:02.882134,3347283,-5531,394,-556,21,-299,39,9,421,-173
2,2,2022-09-30T20:43:02.891661,3347294,-5531,394,-556,21,-299,39,19,419,-173
3,2,2022-09-30T20:43:02.898071,3347300,-5531,394,-556,21,-299,39,19,419,-173
4,2,2022-09-30T20:43:02.905439,3347307,-5526,393,-556,22,-270,82,19,419,-173
5,2,2022-09-30T20:43:02.911611,3347313,-5526,393,-556,22,-270,82,19,419,-173
6,2,2022-09-30T20:43:02.917862,3347319,-5526,393,-556,22,-270,82,19,419,-173
7,2,2022-09-30T20:43:02.925561,3347328,-5532,395,-554,-15,-231,40,19,419,-173
8,2,2022-09-30T20:43:02.931405,3347334,-5532,395,-554,-15,-231,40,19,419,-173
9,2,2022-09-30T20:43:02.938380,3347341,-5532,395,-554,-15,-231,40,19,419,-173
10,2,2022-09-30T20:43:02.946381,3347348,-5527,397,-558,-75,-211,-13,19,419,-173
11,2,2022-09-30T20:43:02.952640,3347355,-5527,397,-558,-75,-211,-13,19,419,-173
12,2,2022-09-30T20:43:02.958479,3347360,-5527,397,-558,-75,-211,-13,19,419,-173
13,2,2022-09-30T20:43:02.964568,3347366,-5526,397,-557,-166,-207,-55,19,419,-173
14,2,2022-09-30T20:43:02.971461,3347373,-5526,397,-557,-166,-207,-55,19,419,-173
15,2,2022-09-30T20:43:02.977399,3347380,-5526,397,-557,-166,-207,-55,19,419,-173
16,2,2022-09-30T20:43:02.984928,3347387,-5535,394,-559,-294,-232,-71,19,419,-173
17,2,2022-09-30T20:43:02.991516,3347393,-5535,394,-559,-294,-232,-71,19,419,-173
18,2,2022-09-30T20:43:02.999611,3347402,-5535,394,-559,-294,-232,-71,19,419,-173
19,2,2022-09-30T20:43:03.006617,3347409,-5542,378,-560,-358,-284,-73,18,420,-164
20,2,2022-09-30T20:43:03.012299,3347415,-5542,378,-560,-358,-284,-73,18,420,-164
21,2,2022-09-30T20:43:03.021032,3347423,-5542,378,-560,-358,-284,-73,18,420,-164
22,2,2022-09-30T20:43:03.028566,3347431,-5542,377,-562,-313,-269,-72,18,420,-164
23,2,2022-09-30T20:43:03.034452,3347437,-5542,377,-562,-313,-269,-72,18,420,-164
24,2,2022-09-30T20:43:03.042204,3347444,-5535,379,-562,-230,-275,-43,18,420,-164
25,2,2022-09-30T20:43:03.048481,3347450,-5535,379,-562,-230,-275,-43,18,420,-164
26,2,2022-09-30T20:43:03.054631,3347457,-5535,379,-562,-230,-275,-43,18,420,-164
27,2,2022-09-30T20:43:03.062749,3347465,-5523,383,-562,-146,-279,0,18,420,-164
28,2,2022-09-30T20:43:03.071133,3347473,-5523,383,-562,-146,-279,0,18,420,-164
29,2,2022-09-30T20:43:03.076766,3347479,-5523,383,-562,-146,-279,0,18,420,-164
30,2,2022-09-30T20:43:03.082880,3347485,-5524,391,-560,-63,-227,72,18,420,-164
31,2,2022-09-30T20:43:03.089456,3347491,-5524,391,-560,-63,-227,72,18,420,-164
32,2,2022-09-30T20:43:03.095616,3347497,-5524,391,-560,-63,-227,72,18,420,-164
33,2,2022-09-30T20:43:03.104842,3347507,-5529,394,-564,-15,-169,131,18,420,-164
34,2,2022-09-30T20:43:03.110575,3347513,-5529,394,-564,-15,-169,131,18,420,-164
35,2,2022-09-30T20:43:03.116857,3347519,-5529,394,-564,-15,-169,131,18,420,-164
36,2,2022-09-30T20:43:03.124902,3347527,-5530,404,-561,1,-128,132,15,427,-175
37,2,2022-09-30T20:43:03.131051,3347533,-5530,404,-561,1,-128,132,15,427,-175
38,2,2022-09-30T20:43:03.139218,3347542,-5530,404,-561,1,-128,132,15,427,-175
39,2,2022-09-30T20:43:03.145057,3347548,-5536,407,-565,-34,-114,84,15,427,-175
40,2,2022-09-30T20:43:03.151573,3347554,-5536,407,-565,-34,-114,84,15,427,-175
41,2,2022-09-30T20:43:03.157729,3347560,-5536,407,-565,-34,-114,84,15,427,-175
42,2,2022-09-30T20:43:03.165848,3347568,-5537,408,-567,-108,-127,13,15,427,-175
43,2,2022-09-30T20:43:03.172459,3347574,-5537,408,-567,-108,-127,13,15,427,-175
44,2,2022-09-30T20:43:03.178275,3347580,-5537,408,-567,-108,-127,13,15,427,-175
45,2,2022-09-30T20:43:03.185339,3347588,-5537,413,-568,-188,-142,-49,15,427,-175
46,2,2022-09-30T20:43:03.191728,3347594,-5537,413,-568,-188,-142,-49,15,427,-175
47,2,2022-09-30T20:43:03.197773,3347600,-5537,413,-568,-188,-142,-49,15,427,-175
48,2,2022-09-30T20:43:03.205198,3347607,-5544,405,-568,-265,-168,-100,15,427,-175
49,2,2022-09-30T20:43:03.211465,3347613,-5544,405,-568,-265,-168,-100,15,427,-175
50,2,2022-09-30T20:43:03.217259,3347619,-5544,405,-568,-265,-168,-100,15,427,-175
51,2,2022-09-30T20:43:03.225181,3347628,-5543,398,-567,-272,-229,-145,15,427,-175
52,2,2022-09-30T20:43:03.235673,3347637,-5543,398,-567,-272,-229,-145,15,427,-175
53,2,2022-09-30T20:43:03.247193,3347650,-5539,394,-574,-218,-293,-189,15,427,-175
54,2,2022-09-30T20:43:03.254149,3347656,-5539,394,-574,-218,-293,-189,15,427,-175
55,2,2022-09-30T20:43:03.264421,3347667,-5538,397,-570,-171,-304,-255,11,425,-175
56,2,2022-09-30T20:43:03.273746,3347677,-5538,397,-570,-171,-304,-255,11,425,-175
57,2,2022-09-30T20:43:03.284465,3347687,-5547,389,-564,-114,-325,-337,11,425,-175
58,2,2022-09-30T20:43:03.291331,3347693,-5547,389,-564,-114,-325,-337,11,425,-175
59,2,2022-09-30T20:43:03.299595,3347702,-5547,389,-564,-114,-325,-337,11,425,-175
60,2,2022-09-30T20:43:03.307824,3347709,-5537,384,-564,-45,-405,-417,11,425,-175
61,2,2022-09-30T20:43:03.314774,3347717,-5537,384,-564,-45,-405,-417,11,425,-175
62,2,2022-09-30T20:43:03.324879,3347727,-5528,385,-557,-11,-445,-487,11,425,-175
63,2,2022-09-30T20:43:03.331480,3347733,-5528,385,-557,-11,-445,-487,11,425,-175
64,2,2022-09-30T20:43:03.338066,3347740,-5528,385,-557,-11,-445,-487,11,425,-175
65,2,2022-09-30T20:43:03.346911,3347749,-5521,386,-556,-9,-408,-461,11,425,-175
66,2,2022-09-30T20:43:03.352661,3347755,-5521,386,-556,-9,-408,-461,11,425,-175
67,2,2022-09-30T20:43:03.358522,3347761,-5521,386,-556,-9,-408,-461,11,425,-175
68,2,2022-09-30T20:43:03.366316,3347769,-5525,386,-561,-43,-362,-370,11,425,-175
69,2,2022-09-30T20:43:03.372789,3347775,-5525,386,-561,-43,-362,-370,11,425,-175
70,2,2022-09-30T20:43:03.397171,3347781,-5525,386,-561,-43,-362,-370,11,425,-175
71,2,2022-09-30T20:43:03.403153,3347806,-5521,374,-550,-72,-287,-202,20,426,-166
72,2,2022-09-30T20:43:03.408770,3347811,-5521,374,-550,-72,-287,-202,20,426,-166
73,2,2022-09-30T20:43:03.414870,3347817,-5521,374,-550,-72,-287,-202,20,426,-166
74,2,2022-09-30T20:43:03.420923,3347823,-5521,374,-550,-72,-287,-202,20,426,-166
75,2,2022-09-30T20:43:03.426415,3347829,-5519,371,-547,-77,-248,-145,20,426,-166
76,2,2022-09-30T20:43:03.432480,3347834,-5519,371,-547,-77,-248,-145,20,426,-166
77,2,2022-09-30T20:43:03.440559,3347843,-5519,371,-547,-77,-248,-145,20,426,-166
78,2,2022-09-30T20:43:03.447224,3347850,-5528,377,-554,-94,-222,-73,20,426,-166
79,2,2022-09-30T20:43:03.452993,3347856,-5528,377,-554,-94,-222,-73,20,426,-166
80,2,2022-09-30T20:43:03.462598,3347865,-5528,380,-549,-116,-203,11,20,426,-166
81,2,2022-09-30T20:43:03.468778,3347871,-5528,380,-549,-116,-203,11,20,426,-166
82,2,2022-09-30T20:43:03.474650,3347877,-5528,380,-549,-116,-203,11,20,426,-166
83,2,2022-09-30T20:43:03.482979,3347886,-5534,380,-547,-133,-195,73,20,426,-166
84,2,2022-09-30T20:43:03.488768,3347891,-5534,380,-547,-133,-195,73,20,426,-166
85,2,2022-09-30T20:43:03.495091,3347897,-5534,380,-547,-133,-195,73,20,426,-166
86,2,2022-09-30T20:43:03.504354,3347907,-5537,380,-545,-155,-196,88,14,426,-172
87,2,2022-09-30T20:43:03.510240,3347912,-5537,380,-545,-155,-196,88,14,426,-172
88,2,2022-09-30T20:43:03.516212,3347918,-5537,380,-545,-155,-196,88,14,426,-172
89,2,2022-09-30T20:43:03.531176,3347929,-5536,377,-547,-169,-199,57,14,426,-172
90,2,2022-09-30T20:43:03.537643,3347940,-5536,377,-547,-169,-199,57,14,426,-172
91,2,2022-09-30T20:43:03.547049,3347949,-5532,377,-549,-173,-204,13,14,426,-172
92,2,2022-09-30T20:43:03.553134,3347955,-5532,377,-549,-173,-204,13,14,426,-172
93,2,2022-09-30T20:43:03.559254,3347961,-5532,377,-549,-173,-204,13,14,426,-172
94,2,2022-09-30T20:43:03.565341,3347968,-5530,380,-544,-159,-187,-38,14,426,-172
95,2,2022-09-30T20:43:03.571116,3347974,-5530,380,-544,-159,-187,-38,14,426,-172
96,2,2022-09-30T20:43:03.577127,3347980,-5530,380,-544,-159,-187,-38,14,426,-172
97,2,2022-09-30T20:43:03.584295,3347987,-5525,386,-550,-143,-171,-90,14,426,-172
98,2,2022-09-30T20:43:03.590487,3347992,-5525,386,-550,-143,-171,-90,14,426,-172
99,2,2022-09-30T20:43:03.596796,3347999,-5525,386,-550,-143,-171,-90,14,426,-172
100,2,2022-09-30T20:43:03.602905,3348005,-5528,390,-549,-170,-135,-114,14,426,-172
101,2,2022-09-30T20:43:03.609168,3348012,-5528,390,-549,-170,-135,-114,14,426,-172
102,2,2022-09-30T20:43:03.615575,3348018,-5528,390,-549,-170,-135,-114,14,426,-172
103,2,2022-09-30T20:43:03.621393,3348024,-5528,390,-549,-170,-135,-114,14,426,-172
104,2,2022-09-30T20:43:03.627429,3348030,-5536,392,-546,-215,-100,-104,22,414,-170
105,2,2022-09-30T20:43:03.633646,3348036,-5536,392,-546,-215,-100,-104,22,414,-170
106,2,2022-09-30T20:43:03.643013,3348045,-5536,394,-553,-274,-112,-73,22,414,-170
107,2,2022-09-30T20:43:03.649473,3348051,-5536,394,-553,-274,-112,-73,22,414,-170
108,2,2022-09-30T20:43:03.655084,3348058,-5536,394,-553,-274,-112,-73,22,414,-170
109,2,2022-09-30T20:43:03.665109,3348068,-5538,393,-555,-329,-135,-47,22,414,-170
110,2,2022-09-30T20:43:03.672283,3348074,-5538,393,-555,-329,-135,-47,22,414,-170
111,2,2022-09-30T20:43:03.680373,3348082,-5538,393,-555,-329,-135,-47,22,414,-170
112,2,2022-09-30T20:43:03.687332,3348089,-5530,390,-561,-349,-157,-53,22,414,-170
113,2,2022-09-30T20:43:03.693262,3348096,-5530,390,-561,-349,-157,-53,22,414,-170
114,2,2022-09-30T20:43:03.699023,3348102,-5530,390,-561,-349,-157,-53,22,414,-170
115,2,2022-09-30T20:43:03.706689,3348109,-5528,385,-561,-344,-139,-57,22,414,-170
116,2,2022-09-30T20:43:03.712792,3348115,-5528,385,-561,-344,-139,-57,22,414,-170
117,2,2022-09-30T20:43:03.719145,3348121,-5528,385,-561,-344,-139,-57,22,414,-170
118,2,2022-09-30T20:43:03.727272,3348129,-5529,383,-562,-312,-109,-70,22,414,-170
119,2,2022-09-30T20:43:03.733067,3348135,-5529,383,-562,-312,-109,-70,22,414,-170
120,2,2022-09-30T20:43:03.739125,3348142,-5529,383,-562,-312,-109,-70,22,414,-170
121,2,2022-09-30T20:43:03.745232,3348148,-5530,381,-557,-284,-81,-108,14,420,-166
122,2,2022-09-30T20:43:03.751553,3348154,-5530,381,-557,-284,-81,-108,14,420,-166
123,2,2022-09-30T20:43:03.758967,3348162,-5530,381,-557,-284,-81,-108,14,420,-166
124,2,2022-09-30T20:43:03.767212,3348169,-5531,384,-563,-244,-38,-113,14,420,-166
125,2,2022-09-30T20:43:03.773741,3348175,-5531,384,-563,-244,-38,-113,14,420,-166
126,2,2022-09-30T20:43:03.783434,3348186,-5526,391,-561,-244,-37,-63,14,420,-166
127,2,2022-09-30T20:43:03.790798,3348193,-5526,391,-561,-244,-37,-63,14,420,-166
128,2,2022-09-30T20:43:03.798180,3348200,-5526,391,-561,-244,-37,-63,14,420,-166
129,2,2022-09-30T20:43:03.806888,3348209,-5525,390,-572,-262,-28,-2,14,420,-166
130,2,2022-09-30T20:43:03.813248,3348215,-5525,390,-572,-262,-28,-2,14,420,-166
131,2,2022-09-30T20:43:03.822073,3348225,-5525,390,-572,-262,-28,-2,14,420,-166
132,2,2022-09-30T20:43:03.829623,3348232,-5547,388,-570,-305,-36,69,14,420,-166
133,2,2022-09-30T20:43:03.835615,3348238,-5547,388,-570,-305,-36,69,14,420,-166
134,2,2022-09-30T20:43:03.841961,3348244,-5547,388,-570,-305,-36,69,14,420,-166
135,2,2022-09-30T20:43:03.848391,3348250,-5554,386,-569,-322,-101,100,14,420,-166
136,2,2022-09-30T20:43:03.854928,3348257,-5554,386,-569,-322,-101,100,14,420,-166
137,2,2022-09-30T20:43:03.861532,3348263,-5554,386,-569,-322,-101,100,14,420,-166
138,2,2022-09-30T20:43:03.867498,3348270,-5549,381,-575,-279,-220,97,14,420,-166
139,2,2022-09-30T20:43:03.873735,3348276,-5549,381,-575,-279,-220,97,14,420,-166
140,2,2022-09-30T20:43:03.879300,3348282,-5549,381,-575,-279,-220,97,14,420,-166
141,2,2022-09-30T20:43:03.885649,3348288,-5534,384,-566,-191,-322,86,14,422,-174
142,2,2022-09-30T20:43:03.892732,3348294,-5534,384,-566,-191,-322,86,14,422,-174
143,2,2022-09-30T20:43:03.899567,3348301,-5534,384,-566,-191,-322,86,14,422,-174
144,2,2022-09-30T20:43:03.906743,3348310,-5524,385,-566,-98,-324,59,14,422,-174
145,2,2022-09-30T20:43:03.913079,3348316,-5524,385,-566,-98,-324,59,14,422,-174
146,2,2022-09-30T20:43:03.919288,3348322,-5524,385,-566,-98,-324,59,14,422,-174
147,2,2022-09-30T20:43:03.925285,3348328,-5523,394,-570,-19,-258,33,14,422,-174
148,2,2022-09-30T20:43:03.952433,3348333,-5523,394,-570,-19,-258,33,14,422,-174
149,2,2022-09-30T20:43:03.958647,3348361,-5527,401,-565,31,-197,12,14,422,-174
150,2,2022-09-30T20:43:03.964422,3348366,-5532,408,-564,20,-176,-15,14,422,-174
151,2,2022-09-30T20:43:03.970647,3348373,-5532,408,-564,20,-176,-15,14,422,-174
152,2,2022-09-30T20:43:03.976982,3348379,-5532,408,-564,20,-176,-15,14,422,-174
153,2,2022-09-30T20:43:03.984893,3348387,-5542,413,-564,-46,-190,-29,14,422,-174
154,2,2022-09-30T20:43:03.991491,3348393,-5542,413,-564,-46,-190,-29,14,422,-174
155,2,2022-09-30T20:43:03.999871,3348403,-5542,413,-564,-46,-190,-29,14,422,-174
156,2,2022-09-30T20:43:04.007340,3348410,-5539,413,-561,-145,-212,-77,9,415,-173
157,2,2022-09-30T20:43:04.013759,3348416,-5539,413,-561,-145,-212,-77,9,415,-173
158,2,2022-09-30T20:43:04.019707,3348421,-5539,413,-561,-145,-212,-77,9,415,-173
159,2,2022-09-30T20:43:04.027636,3348430,-5535,409,-566,-248,-224,-105,9,415,-173
160,2,2022-09-30T20:43:04.034094,3348436,-5535,409,-566,-248,-224,-105,9,415,-173
161,2,2022-09-30T20:43:04.039744,3348442,-5535,409,-566,-248,-224,-105,9,415,-173
162,2,2022-09-30T20:43:04.045353,3348448,-5539,400,-564,-310,-223,-146,9,415,-173
163,2,2022-09-30T20:43:04.051757,3348454,-5539,400,-564,-310,-223,-146,9,415,-173
164,2,2022-09-30T20:43:04.057761,3348460,-5539,400,-564,-310,-223,-146,9,415,-173
165,2,2022-09-30T20:43:04.063534,3348466,-5526,391,-566,-339,-217,-182,9,415,-173
166,2,2022-09-30T20:43:04.069536,3348471,-5526,391,-566,-339,-217,-182,9,415,-173
167,2,2022-09-30T20:43:04.075628,3348478,-5526,391,-566,-339,-217,-182,9,415,-173
168,2,2022-09-30T20:43:04.141613,3348543,-5534,372,-561,-221,-195,-258,14,432,-174
169,2,2022-09-30T20:43:04.148075,3348550,-5531,379,-560,-158,-232,-258,14,432,-174
170,2,2022-09-30T20:43:04.155630,3348557,-5531,379,-560,-158,-232,-258,14,432,-174
171,2,2022-09-30T20:43:04.162500,3348564,-5531,379,-560,-158,-232,-258,14,432,-174
172,2,2022-09-30T20:43:04.170189,3348572,-5526,385,-568,-120,-239,-201,14,432,-174
173,2,2022-09-30T20:43:04.176644,3348579,-5526,385,-568,-120,-239,-201,14,432,-174
174,2,2022-09-30T20:43:04.187009,3348589,-5531,384,-564,-121,-215,-114,14,432,-174
175,2,2022-09-30T20:43:04.193806,3348596,-5531,384,-564,-121,-215,-114,14,432,-174
176,2,2022-09-30T20:43:04.200220,3348602,-5531,384,-564,-121,-215,-114,14,432,-174
177,2,2022-09-30T20:43:04.206884,3348609,-5531,384,-564,-121,-215,-114,14,432,-174
178,2,2022-09-30T20:43:04.213272,3348616,-5531,384,-564,-121,-215,-114,14,432,-174
179,2,2022-09-30T20:43:04.223770,3348626,-5533,391,-564,-160,-209,-34,14,432,-174
180,2,2022-09-30T20:43:04.230201,3348632,-5533,391,-564,-160,-209,-34,14,432,-174
181,2,2022-09-30T20:43:04.236358,3348638,-5533,391,-564,-160,-209,-34,14,432,-174
182,2,2022-09-30T20:43:04.245868,3348648,-5533,394,-559,-206,-232,-43,17,423,-171
183,2,2022-09-30T20:43:04.251635,3348654,-5533,394,-559,-206,-232,-43,17,423,-171
184,2,2022-09-30T20:43:04.257944,3348660,-5533,394,-559,-206,-232,-43,17,423,-171
185,2,2022-09-30T20:43:04.269519,3348669,-5537,389,-561,-233,-255,-54,17,423,-171
186,2,2022-09-30T20:43:04.275701,3348678,-5537,389,-561,-233,-255,-54,17,423,-171
187,2,2022-09-30T20:43:04.285346,3348687,-5538,387,-562,-232,-292,-60,17,423,-171
188,2,2022-09-30T20:43:04.295850,3348698,-5538,387,-562,-232,-292,-60,17,423,-171
189,2,2022-09-30T20:43:04.301870,3348705,-5538,387,-562,-232,-292,-60,17,423,-171
190,2,2022-09-30T20:43:04.307972,3348710,-5530,384,-563,-210,-294,-47,17,423,-171
191,2,2022-09-30T20:43:04.315051,3348716,-5530,384,-563,-210,-294,-47,17,423,-171
192,2,2022-09-30T20:43:04.321423,3348723,-5530,384,-563,-210,-294,-47,17,423,-171
193,2,2022-09-30T20:43:04.327534,3348729,-5529,388,-557,-166,-272,-32,17,423,-171
194,2,2022-09-30T20:43:04.333617,3348736,-5529,388,-557,-166,-272,-32,17,423,-171
195,2,2022-09-30T20:43:04.340009,3348742,-5529,388,-557,-166,-272,-32,17,423,-171
196,2,2022-09-30T20:43:04.345897,3348749,-5526,387,-558,-139,-232,-37,17,423,-171
197,2,2022-09-30T20:43:04.352476,3348754,-5526,387,-558,-139,-232,-37,17,423,-171
198,2,2022-09-30T20:43:04.358480,3348761,-5526,387,-558,-139,-232,-37,17,423,-171
199,2,2022-09-30T20:43:04.364583,3348766,-5532,392,-555,-124,-207,-34,21,417,-175
200,2,2022-09-30T20:43:04.370577,3348772,-5532,392,-555,-124,-207,-34,21,417,-175
201,2,2022-09-30T20:43:04.376612,3348779,-5532,392,-555,-124,-207,-34,21,417,-175
202,2,2022-09-30T20:43:04.381832,3348785,-5532,392,-555,-124,-207,-34,21,417,-175
203,2,2022-09-30T20:43:04.387482,3348790,-5529,394,-555,-122,-191,-37,21,417,-175
204,2,2022-09-30T20:43:04.394324,3348796,-5529,394,-555,-122,-191,-37,21,417,-175
205,2,2022-09-30T20:43:04.400136,3348802,-5529,394,-555,-122,-191,-37,21,417,-175
206,2,2022-09-30T20:43:04.406342,3348808,-5529,394,-555,-122,-191,-37,21,417,-175
207,2,2022-09-30T20:43:04.412705,3348814,-5529,394,-555,-122,-191,-37,21,417,-175
208,2,2022-09-30T20:43:04.418641,3348820,-5529,394,-555,-122,-191,-37,21,417,-175
209,2,2022-09-30T20:43:04.424797,3348827,-5533,397,-562,-200,-169,-27,21,417,-175
210,2,2022-09-30T20:43:04.430843,3348833,-5533,397,-562,-200,-169,-27,21,417,-175
211,2,2022-09-30T20:43:04.438907,3348841,-5533,397,-562,-200,-169,-27,21,417,-175
212,2,2022-09-30T20:43:04.447120,3348849,-5536,394,-561,-257,-159,-35,21,417,-175
213,2,2022-09-30T20:43:04.452430,3348855,-5536,394,-561,-257,-159,-35,21,417,-175
214,2,2022-09-30T20:43:04.460277,3348862,-5536,394,-561,-257,-159,-35,21,417,-175
215,2,2022-09-30T20:43:04.466853,3348869,-5538,387,-564,-287,-185,-45,21,417,-175
216,2,2022-09-30T20:43:04.472295,3348875,-5538,387,-564,-287,-185,-45,21,417,-175
217,2,2022-09-30T20:43:04.478209,3348881,-5538,387,-564,-287,-185,-45,21,417,-175
218,2,2022-09-30T20:43:04.483913,3348886,-5535,386,-564,-275,-200,-63,21,417,-175
219,2,2022-09-30T20:43:04.489485,3348892,-5535,386,-564,-275,-200,-63,21,417,-175
220,2,2022-09-30T20:43:04.495981,3348898,-5535,386,-564,-275,-200,-63,21,417,-175
221,2,2022-09-30T20:43:04.505343,3348908,-5531,383,-558,-242,-192,-56,13,419,-171
222,2,2022-09-30T20:43:04.511191,3348914,-5531,383,-558,-242,-192,-56,13,419,-171
223,2,2022-09-30T20:43:04.520864,3348923,-5531,383,-558,-242,-192,-56,13,419,-171
224,2,2022-09-30T20:43:04.528069,3348929,-5526,382,-563,-193,-170,-58,13,419,-171
225,2,2022-09-30T20:43:04.533940,3348936,-5526,382,-563,-193,-170,-58,13,419,-171
226,2,2022-09-30T20:43:04.540291,3348942,-5526,382,-563,-193,-170,-58,13,419,-171
227,2,2022-09-30T20:43:04.548826,3348952,-5534,380,-560,-147,-137,-56,13,419,-171
228,2,2022-09-30T20:43:04.554955,3348957,-5534,380,-560,-147,-137,-56,13,419,-171
229,2,2022-09-30T20:43:04.562879,3348965,-5534,380,-560,-147,-137,-56,13,419,-171
230,2,2022-09-30T20:43:04.569684,3348972,-5530,385,-569,-92,-143,-47,13,419,-171
231,2,2022-09-30T20:43:04.575390,3348978,-5530,385,-569,-92,-143,-47,13,419,-171
232,2,2022-09-30T20:43:04.585778,3348988,-5524,393,-570,-83,-139,-18,13,419,-171
233,2,2022-09-30T20:43:04.592244,3348995,-5524,393,-570,-83,-139,-18,13,419,-171
234,2,2022-09-30T20:43:04.598349,3349001,-5524,393,-570,-83,-139,-18,13,419,-171
235,2,2022-09-30T20:43:04.604550,3349007,-5539,395,-567,-112,-137,33,13,419,-171
236,2,2022-09-30T20:43:04.610274,3349013,-5539,395,-567,-112,-137,33,13,419,-171
237,2,2022-09-30T20:43:04.616165,3349018,-5539,395,-567,-112,-137,33,13,419,-171
238,2,2022-09-30T20:43:04.626644,3349029,-5538,390,-564,-163,-163,66,10,420,-168
239,2,2022-09-30T20:43:04.633748,3349036,-5538,390,-564,-163,-163,66,10,420,-168
240,2,2022-09-30T20:43:04.639817,3349043,-5538,390,-564,-163,-163,66,10,420,-168
241,2,2022-09-30T20:43:04.645527,3349048,-5540,394,-560,-208,-205,70,10,420,-168
242,2,2022-09-30T20:43:04.651372,3349054,-5540,394,-560,-208,-205,70,10,420,-168
243,2,2022-09-30T20:43:04.657088,3349059,-5540,394,-560,-208,-205,70,10,420,-168
244,2,2022-09-30T20:43:04.664116,3349066,-5531,393,-566,-212,-266,101,10,420,-168
245,2,2022-09-30T20:43:04.670464,3349072,-5531,393,-566,-212,-266,101,10,420,-168
246,2,2022-09-30T20:43:04.676431,3349079,-5531,393,-566,-212,-266,101,10,420,-168
247,2,2022-09-30T20:43:04.681893,3349085,-5531,393,-566,-212,-266,101,10,420,-168
248,2,2022-09-30T20:43:04.687375,3349090,-5527,400,-563,-182,-262,139,10,420,-168
249,2,2022-09-30T20:43:04.693452,3349095,-5527,400,-563,-182,-262,139,10,420,-168
250,2,2022-09-30T20:43:04.698827,3349101,-5527,400,-563,-182,-262,139,10,420,-168
251,2,2022-09-30T20:43:04.704331,3349106,-5527,406,-564,-136,-216,193,10,420,-168
252,2,2022-09-30T20:43:04.710421,3349112,-5527,406,-564,-136,-216,193,10,420,-168
253,2,2022-09-30T20:43:04.716682,3349118,-5527,406,-564,-136,-216,193,10,420,-168
254,2,2022-09-30T20:43:04.722618,3349125,-5527,406,-564,-136,-216,193,10,420,-168
255,2,2022-09-30T20:43:04.728095,3349131,-5524,408,-567,-82,-157,207,10,420,-168
256,2,2022-09-30T20:43:04.733391,3349136,-5524,408,-567,-82,-157,207,10,420,-168
257,2,2022-09-30T20:43:04.739479,3349142,-5524,408,-567,-82,-157,207,10,420,-168
258,2,2022-09-30T20:43:04.745541,3349148,-5535,418,-567,-43,-116,161,17,419,-177
259,2,2022-09-30T20:43:04.751226,3349153,-5535,418,-567,-43,-116,161,17,419,-177
260,2,2022-09-30T20:43:04.757211,3349159,-5535,418,-567,-43,-116,161,17,419,-177
261,2,2022-09-30T20:43:04.765097,3349168,-5541,423,-567,-57,-110,69,17,419,-177
262,2,2022-09-30T20:43:04.771179,3349174,-5541,423,-567,-57,-110,69,17,419,-177
263,2,2022-09-30T20:43:04.777599,3349180,-5541,423,-567,-57,-110,69,17,419,-177
264,2,2022-09-30T20:43:04.784440,3349186,-5543,426,-565,-77,-134,-39,17,419,-177
265,2,2022-09-30T20:43:04.790589,3349192,-5543,426,-565,-77,-134,-39,17,419,-177
266,2,2022-09-30T20:43:04.796308,3349198,-5543,426,-565,-77,-134,-39,17,419,-177
267,2,2022-09-30T20:43:04.802337,3349204,-5543,426,-565,-77,-134,-39,17,419,-177
268,2,2022-09-30T20:43:04.807659,3349211,-5546,422,-568,-115,-185,-122,17,419,-177
269,2,2022-09-30T20:43:04.813533,3349216,-5546,422,-568,-115,-185,-122,17,419,-177
270,2,2022-09-30T20:43:04.819537,3349221,-5546,422,-568,-115,-185,-122,17,419,-177
271,2,2022-09-30T20:43:04.827473,3349230,-5548,417,-573,-145,-244,-192,17,419,-177
272,2,2022-09-30T20:43:04.832998,3349235,-5548,417,-573,-145,-244,-192,17,419,-177
273,2,2022-09-30T20:43:04.838628,3349241,-5548,417,-573,-145,-244,-192,17,419,-177
274,2,2022-09-30T20:43:04.846852,3349250,-5532,407,-572,-153,-318,-240,17,419,-177
275,2,2022-09-30T20:43:04.852704,3349255,-5532,407,-572,-153,-318,-240,17,419,-177
276,2,2022-09-30T20:43:04.858789,3349261,-5532,407,-572,-153,-318,-240,17,419,-177
277,2,2022-09-30T20:43:04.864234,3349267,-5524,405,-564,-133,-311,-299,6,422,-174
278,2,2022-09-30T20:43:04.870186,3349272,-5524,405,-564,-133,-311,-299,6,422,-174
279,2,2022-09-30T20:43:04.876084,3349278,-5524,405,-564,-133,-311,-299,6,422,-174
280,2,2022-09-30T20:43:04.882083,3349284,-5524,405,-564,-133,-311,-299,6,422,-174
281,2,2022-09-30T20:43:04.887667,3349291,-5537,401,-556,-121,-258,-360,6,422,-174
282,2,2022-09-30T20:43:04.894860,3349296,-5537,401,-556,-121,-258,-360,6,422,-174
283,2,2022-09-30T20:43:04.900802,3349303,-5537,401,-556,-121,-258,-360,6,422,-174
284,2,2022-09-30T20:43:04.930029,3349311,-5535,397,-554,-76,-275,-382,6,422,-174
285,2,2022-09-30T20:43:04.936122,3349339,-5531,396,-560,-43,-313,-397,6,422,-174
286,2,2022-09-30T20:43:04.942127,3349344,-5531,396,-560,-43,-313,-397,6,422,-174
287,2,2022-09-30T20:43:04.948013,3349350,-5518,401,-560,-45,-301,-352,6,422,-174
288,2,2022-09-30T20:43:04.953642,3349356,-5518,401,-560,-45,-301,-352,6,422,-174
289,2,2022-09-30T20:43:04.959756,3349362,-5518,401,-560,-45,-301,-352,6,422,-174
290,2,2022-09-30T20:43:04.966077,3349368,-5518,401,-557,-76,-219,-276,6,422,-174
291,2,2022-09-30T20:43:04.971552,3349373,-5518,401,-557,-76,-219,-276,6,422,-174
292,2,2022-09-30T20:43:04.977949,3349380,-5518,401,-557,-76,-219,-276,6,422,-174
293,2,2022-09-30T20:43:04.983379,3349386,-5524,402,-559,-113,-144,-200,13,419,-169
294,2,2022-09-30T20:43:04.990146,3349392,-5524,402,-559,-113,-144,-200,13,419,-169
295,2,2022-09-30T20:43:04.995771,3349398,-5524,402,-559,-113,-144,-200,13,419,-169
296,2,2022-09-30T20:43:05.001598,3349404,-5524,402,-559,-113,-144,-200,13,419,-169
297,2,2022-09-30T20:43:05.006826,3349409,-5532,399,-554,-153,-98,-177,13,419,-169
298,2,2022-09-30T20:43:05.013380,3349415,-5532,399,-554,-153,-98,-177,13,419,-169
299,2,2022-09-30T20:43:05.023073,3349426,-5532,399,-554,-153,-98,-177,13,419,-169
300,2,2022-09-30T20:43:05.028989,3349431,-5535,392,-563,-211,-92,-197,13,419,-169
301,2,2022-09-30T20:43:05.035287,3349437,-5535,392,-563,-211,-92,-197,13,419,-169
302,2,2022-09-30T20:43:05.042727,3349445,-5535,392,-563,-211,-92,-197,13,419,-169
303,2,2022-09-30T20:43:05.048330,3349450,-5537,392,-571,-262,-112,-215,13,419,-169
304,2,2022-09-30T20:43:05.054655,3349456,-5537,392,-571,-262,-112,-215,13,419,-169
305,2,2022-09-30T20:43:05.060486,3349463,-5537,392,-571,-262,-112,-215,13,419,-169
306,2,2022-09-30T20:43:05.071625,3349469,-5538,389,-565,-284,-144,-219,13,419,-169
307,2,2022-09-30T20:43:05.077335,3349480,-5538,389,-565,-284,-144,-219,13,419,-169
308,2,2022-09-30T20:43:05.082993,3349486,-5538,389,-565,-284,-144,-219,13,419,-169
309,2,2022-09-30T20:43:05.088345,3349491,-5537,383,-565,-278,-172,-202,13,419,-169
310,2,2022-09-30T20:43:05.093976,3349496,-5537,383,-565,-278,-172,-202,13,419,-169
311,2,2022-09-30T20:43:05.100064,3349502,-5537,383,-565,-278,-172,-202,13,419,-169
312,2,2022-09-30T20:43:05.105981,3349509,-5537,381,-569,-233,-205,-178,13,419,-169
313,2,2022-09-30T20:43:05.111941,3349515,-5537,381,-569,-233,-205,-178,13,419,-169
314,2,2022-09-30T20:43:05.117688,3349520,-5537,381,-569,-233,-205,-178,13,419,-169
315,2,2022-09-30T20:43:05.123986,3349526,-5536,380,-563,-172,-206,-175,20,422,-174
316,2,2022-09-30T20:43:05.130013,3349532,-5536,380,-563,-172,-206,-175,20,422,-174
317,2,2022-09-30T20:43:05.136061,3349538,-5536,380,-563,-172,-206,-175,20,422,-174
318,2,2022-09-30T20:43:05.141813,3349544,-5536,380,-563,-172,-206,-175,20,422,-174
319,2,2022-09-30T20:43:05.147782,3349551,-5533,379,-563,-106,-191,-201,20,422,-174
320,2,2022-09-30T20:43:05.153402,3349556,-5533,379,-563,-106,-191,-201,20,422,-174
321,2,2022-09-30T20:43:05.159159,3349562,-5533,379,-563,-106,-191,-201,20,422,-174
322,2,2022-09-30T20:43:05.165005,3349567,-5532,385,-566,-55,-182,-240,20,422,-174
323,2,2022-09-30T20:43:05.171427,3349573,-5532,385,-566,-55,-182,-240,20,422,-174
324,2,2022-09-30T20:43:05.177313,3349579,-5532,385,-566,-55,-182,-240,20,422,-174
325,2,2022-09-30T20:43:05.183033,3349585,-5532,385,-566,-55,-182,-240,20,422,-174
326,2,2022-09-30T20:43:05.188282,3349591,-5536,387,-569,-47,-187,-283,20,422,-174
327,2,2022-09-30T20:43:05.194904,3349597,-5536,387,-569,-47,-187,-283,20,422,-174
328,2,2022-09-30T20:43:05.201115,3349603,-5536,387,-569,-47,-187,-283,20,422,-174
329,2,2022-09-30T20:43:05.207027,3349609,-5540,391,-566,-70,-195,-286,20,422,-174
330,2,2022-09-30T20:43:05.212196,3349615,-5540,391,-566,-70,-195,-286,20,422,-174
331,2,2022-09-30T20:43:05.217587,3349620,-5540,391,-566,-70,-195,-286,20,422,-174
332,2,2022-09-30T20:43:05.223660,3349626,-5538,393,-568,-121,-227,-288,20,422,-174
333,2,2022-09-30T20:43:05.229030,3349632,-5538,393,-568,-121,-227,-288,20,422,-174
334,2,2022-09-30T20:43:05.234860,3349638,-5538,393,-568,-121,-227,-288,20,422,-174
335,2,2022-09-30T20:43:05.240700,3349643,-5538,393,-568,-121,-227,-288,20,422,-174
336,2,2022-09-30T20:43:05.246575,3349649,-5535,387,-565,-176,-266,-270,13,423,-167
337,2,2022-09-30T20:43:05.251874,3349654,-5535,387,-565,-176,-266,-270,13,423,-167
338,2,2022-09-30T20:43:05.257169,3349659,-5535,387,-565,-176,-266,-270,13,423,-167
339,2,2022-09-30T20:43:05.264464,3349667,-5531,379,-561,-203,-283,-254,13,423,-167
340,2,2022-09-30T20:43:05.270341,3349672,-5531,379,-561,-203,-283,-254,13,423,-167
341,2,2022-09-30T20:43:05.276342,3349679,-5531,379,-561,-203,-283,-254,13,423,-167
342,2,2022-09-30T20:43:05.281622,3349684,-5531,379,-561,-203,-283,-254,13,423,-167
343,2,2022-09-30T20:43:05.287308,3349690,-5526,376,-564,-198,-280,-231,13,423,-167
344,2,2022-09-30T20:43:05.293463,3349696,-5526,376,-564,-198,-280,-231,13,423,-167
345,2,2022-09-30T20:43:05.299416,3349702,-5526,376,-564,-198,-280,-231,13,423,-167
346,2,2022-09-30T20:43:05.304940,3349707,-5522,376,-561,-170,-250,-206,13,423,-167
347,2,2022-09-30T20:43:05.310787,3349713,-5522,376,-561,-170,-250,-206,13,423,-167
348,2,2022-09-30T20:43:05.317778,3349719,-5522,376,-561,-170,-250,-206,13,423,-167
349,2,2022-09-30T20:43:05.323360,3349726,-5522,376,-561,-170,-250,-206,13,423,-167
350,2,2022-09-30T20:43:05.329077,3349732,-5528,374,-561,-138,-190,-209,13,423,-167
351,2,2022-09-30T20:43:05.335039,3349737,-5528,374,-561,-138,-190,-209,13,423,-167
352,2,2022-09-30T20:43:05.341228,3349743,-5528,374,-561,-138,-190,-209,13,423,-167
353,2,2022-09-30T20:43:05.346879,3349749,-5528,381,-566,-110,-156,-200,13,423,-167
354,2,2022-09-30T20:43:05.352568,3349755,-5528,381,-566,-110,-156,-200,13,423,-167
355,2,2022-09-30T20:43:05.358595,3349762,-5528,381,-566,-110,-156,-200,13,423,-167
356,2,2022-09-30T20:43:05.363952,3349767,-5523,385,-562,-123,-140,-184,17,425,-173
357,2,2022-09-30T20:43:05.369783,3349772,-5523,385,-562,-123,-140,-184,17,425,-173
358,2,2022-09-30T20:43:05.375457,3349778,-5523,385,-562,-123,-140,-184,17,425,-173
359,2,2022-09-30T20:43:05.381162,3349784,-5523,385,-562,-123,-140,-184,17,425,-173
360,2,2022-09-30T20:43:05.386886,3349789,-5535,388,-570,-164,-122,-150,17,425,-173
361,2,2022-09-30T20:43:05.392493,3349794,-5535,388,-570,-164,-122,-150,17,425,-173
362,2,2022-09-30T20:43:05.398131,3349800,-5535,388,-570,-164,-122,-150,17,425,-173
363,2,2022-09-30T20:43:05.405359,3349808,-5544,379,-567,-224,-144,-123,17,425,-173
364,2,2022-09-30T20:43:05.411073,3349814,-5544,379,-567,-224,-144,-123,17,425,-173
365,2,2022-09-30T20:43:05.416902,3349819,-5544,379,-567,-224,-144,-123,17,425,-173
366,2,2022-09-30T20:43:05.423210,3349826,-5544,379,-567,-224,-144,-123,17,425,-173
367,2,2022-09-30T20:43:05.428691,3349831,-5540,377,-570,-243,-180,-109,17,425,-173
368,2,2022-09-30T20:43:05.434259,3349836,-5540,377,-570,-243,-180,-109,17,425,-173
369,2,2022-09-30T20:43:05.439800,3349842,-5540,377,-570,-243,-180,-109,17,425,-173
370,2,2022-09-30T20:43:05.448200,3349851,-5531,377,-566,-223,-236,-75,17,425,-173
371,2,2022-09-30T20:43:05.453472,3349856,-5531,377,-566,-223,-236,-75,17,425,-173
372,2,2022-09-30T20:43:05.459079,3349861,-5531,377,-566,-223,-236,-75,17,425,-173
373,2,2022-09-30T20:43:05.464679,3349867,-5523,378,-570,-168,-256,-40,17,425,-173
374,2,2022-09-30T20:43:05.470065,3349872,-5523,378,-570,-168,-256,-40,17,425,-173
375,2,2022-09-30T20:43:05.476197,3349878,-5523,378,-570,-168,-256,-40,17,425,-173
376,2,2022-09-30T20:43:05.481622,3349884,-5523,378,-570,-168,-256,-40,17,425,-173
377,2,2022-09-30T20:43:05.487259,3349890,-5527,380,-564,-91,-214,-3,23,427,-173
378,2,2022-09-30T20:43:05.493574,3349896,-5527,380,-564,-91,-214,-3,23,427,-173
379,2,2022-09-30T20:43:05.499414,3349902,-5527,380,-564,-91,-214,-3,23,427,-173
380,2,2022-09-30T20:43:05.505011,3349907,-5530,381,-563,-8,-163,2,23,427,-173
381,2,2022-09-30T20:43:05.511003,3349913,-5530,381,-563,-8,-163,2,23,427,-173
382,2,2022-09-30T20:43:05.517152,3349919,-5530,381,-563,-8,-163,2,23,427,-173
383,2,2022-09-30T20:43:05.522756,3349925,-5530,381,-563,-8,-163,2,23,427,-173
384,2,2022-09-30T20:43:05.528425,3349932,-5534,389,-571,29,-144,-13,23,427,-173
385,2,2022-09-30T20:43:05.534405,3349937,-5534,389,-571,29,-144,-13,23,427,-173
386,2,2022-09-30T20:43:05.540280,3349943,-5534,389,-571,29,-144,-13,23,427,-173
387,2,2022-09-30T20:43:05.545761,3349948,-5542,398,-573,5,-153,-59,23,427,-173
388,2,2022-09-30T20:43:05.555772,3349954,-5542,398,-573,5,-153,-59,23,427,-173
389,2,2022-09-30T20:43:05.572951,3349971,-5543,399,-570,-54,-205,-96,23,427,-173
390,2,2022-09-30T20:43:05.598547,3349993,-5549,388,-569,-140,-259,-148,23,427,-173
391,2,2022-09-30T20:43:05.619971,3350012,-5543,377,-559,-188,-306,-210,14,428,-166
392,2,2022-09-30T20:43:05.629236,3350032,-5518,374,-558,-198,-340,-271,14,428,-166
393,2,2022-09-30T20:43:05.643249,3350043,-5518,374,-558,-198,-340,-271,14,428,-166
394,2,2022-09-30T20:43:05.651163,3350053,-5515,372,-561,-200,-291,-319,14,428,-166
395,2,2022-09-30T20:43:05.658711,3350062,-5515,372,-561,-200,-291,-319,14,428,-166
396,2,2022-09-30T20:43:05.669466,3350069,-5531,368,-563,-183,-182,-330,14,428,-166
397,2,2022-09-30T20:43:05.676034,3350078,-5531,368,-563,-183,-182,-330,14,428,-166
398,2,2022-09-30T20:43:05.686225,3350088,-5530,367,-562,-143,-169,-298,14,428,-166
399,2,2022-09-30T20:43:05.693056,3350094,-5530,367,-562,-143,-169,-298,14,428,-166
400,2,2022-09-30T20:43:05.700446,3350103,-5530,367,-562,-143,-169,-298,14,428,-166
401,2,2022-09-30T20:43:05.709653,3350112,-5525,375,-563,-114,-196,-264,14,428,-166
402,2,2022-09-30T20:43:05.716022,3350118,-5525,375,-563,-114,-196,-264,14,428,-166
403,2,2022-09-30T20:43:05.723560,3350126,-5525,375,-563,-114,-196,-264,14,428,-166
404,2,2022-09-30T20:43:05.731484,3350134,-5527,382,-574,-113,-149,-182,14,428,-166
405,2,2022-09-30T20:43:05.739641,3350141,-5527,382,-574,-113,-149,-182,14,428,-166
406,2,2022-09-30T20:43:05.747557,3350150,-5532,378,-570,-124,-97,-67,14,428,-166
407,2,2022-09-30T20:43:05.753809,3350156,-5532,378,-570,-124,-97,-67,14,428,-166
408,2,2022-09-30T20:43:05.761355,3350164,-5532,378,-570,-124,-97,-67,14,428,-166
409,2,2022-09-30T20:43:05.768884,3350171,-5546,371,-570,-109,-121,15,14,428,-166
410,2,2022-09-30T20:43:05.774765,3350177,-5546,371,-570,-109,-121,15,14,428,-166
411,2,2022-09-30T20:43:05.782473,3350184,-5546,371,-570,-109,-121,15,14,428,-166
412,2,2022-09-30T20:43:05.788932,3350192,-5544,368,-569,-93,-199,-4,14,428,-166
413,2,2022-09-30T20:43:05.796854,3350200,-5544,368,-569,-93,-199,-4,14,428,-166
414,2,2022-09-30T20:43:05.805460,3350208,-5539,368,-568,-80,-269,-99,14,428,-166
415,2,2022-09-30T20:43:05.811318,3350214,-5539,368,-568,-80,-269,-99,14,428,-166
416,2,2022-09-30T20:43:05.818756,3350221,-5539,368,-568,-80,-269,-99,14,428,-166
417,2,2022-09-30T20:43:05.825466,3350228,-5538,369,-566,-79,-304,-189,14,428,-166
418,2,2022-09-30T20:43:05.830997,3350234,-5538,369,-566,-79,-304,-189,14,428,-166
419,2,2022-09-30T20:43:05.837194,3350240,-5538,369,-566,-79,-304,-189,14,428,-166
420,2,2022-09-30T20:43:05.847298,3350250,-5534,370,-564,-55,-324,-212,14,428,-166
421,2,2022-09-30T20:43:05.856902,3350259,-5534,370,-564,-55,-324,-212,14,428,-166
422,2,2022-09-30T20:43:05.866249,3350268,-5526,368,-559,-33,-328,-200,13,425,-177
423,2,2022-09-30T20:43:05.872273,3350275,-5526,368,-559,-33,-328,-200,13,425,-177
424,2,2022-09-30T20:43:05.878285,3350281,-5526,368,-559,-33,-328,-200,13,425,-177
425,2,2022-09-30T20:43:05.886520,3350288,-5524,371,-562,-20,-294,-154,13,425,-177
426,2,2022-09-30T20:43:05.898849,3350301,-5524,371,-562,-20,-294,-154,13,425,-177
427,2,2022-09-30T20:43:05.909955,3350312,-5524,370,-563,-18,-255,-97,13,425,-177
428,2,2022-09-30T20:43:05.918668,3350321,-5524,370,-563,-18,-255,-97,13,425,-177
429,2,2022-09-30T20:43:05.930388,3350333,-5527,378,-561,-27,-229,-38,13,425,-177
430,2,2022-09-30T20:43:06.006352,3350339,-5527,378,-561,-27,-229,-38,13,425,-177
431,2,2022-09-30T20:43:06.014121,3350417,-5537,379,-567,-192,-103,-46,16,428,-170
432,2,2022-09-30T20:43:06.027565,3350430,-5535,376,-572,-203,-122,-70,16,428,-170
433,2,2022-09-30T20:43:06.034885,3350437,-5535,376,-572,-203,-122,-70,16,428,-170
434,2,2022-09-30T20:43:06.041026,3350443,-5535,376,-572,-203,-122,-70,16,428,-170
435,2,2022-09-30T20:43:06.052792,3350455,-5536,368,-569,-180,-148,-93,16,428,-170
436,2,2022-09-30T20:43:06.060418,3350463,-5536,368,-569,-180,-148,-93,16,428,-170
437,2,2022-09-30T20:43:06.068007,3350470,-5532,367,-574,-128,-190,-112,16,428,-170
438,2,2022-09-30T20:43:06.076421,3350479,-5532,367,-574,-128,-190,-112,16,428,-170
439,2,2022-09-30T20:43:06.085150,3350488,-5542,364,-567,-42,-235,-104,16,428,-170
440,2,2022-09-30T20:43:06.092054,3350494,-5542,364,-567,-42,-235,-104,16,428,-170
441,2,2022-09-30T20:43:06.099703,3350502,-5542,364,-567,-42,-235,-104,16,428,-170
442,2,2022-09-30T20:43:06.107582,3350510,-5538,368,-567,71,-265,-91,12,418,-176
443,2,2022-09-30T20:43:06.112938,3350515,-5538,368,-567,71,-265,-91,12,418,-176
444,2,2022-09-30T20:43:06.121793,3350524,-5538,368,-567,71,-265,-91,12,418,-176
445,2,2022-09-30T20:43:06.129661,3350533,-5529,368,-570,149,-280,-96,12,418,-176
446,2,2022-09-30T20:43:06.137775,3350541,-5529,368,-570,149,-280,-96,12,418,-176
447,2,2022-09-30T20:43:06.146508,3350549,-5537,369,-561,185,-288,-123,12,418,-176
448,2,2022-09-30T20:43:06.202757,3350604,-5542,374,-561,155,-333,-160,12,418,-176
449,2,2022-09-30T20:43:06.211657,3350615,-5532,376,-556,120,-378,-132,12,418,-176
450,2,2022-09-30T20:43:06.222356,3350622,-5532,376,-556,120,-378,-132,12,418,-176
451,2,2022-09-30T20:43:06.230171,3350633,-5518,377,-555,97,-383,-61,25,419,-171
452,2,2022-09-30T20:43:06.235868,3350638,-5518,377,-555,97,-383,-61,25,419,-171
453,2,2022-09-30T20:43:06.244172,3350645,-5518,377,-555,97,-383,-61,25,419,-171
454,2,2022-09-30T20:43:06.252492,3350656,-5514,378,-553,85,-328,3,25,419,-171
455,2,2022-09-30T20:43:06.260703,3350663,-5514,378,-553,85,-328,3,25,419,-171
456,2,2022-09-30T20:43:06.268786,3350671,-5517,380,-554,77,-248,63,25,419,-171
457,2,2022-09-30T20:43:06.277788,3350680,-5517,380,-554,77,-248,63,25,419,-171
458,2,2022-09-30T20:43:06.286631,3350689,-5525,381,-553,55,-185,90,25,419,-171
459,2,2022-09-30T20:43:06.294370,3350695,-5525,381,-553,55,-185,90,25,419,-171
460,2,2022-09-30T20:43:06.303896,3350707,-5525,381,-553,55,-185,90,25,419,-171
461,2,2022-09-30T20:43:06.311278,3350714,-5530,388,-557,5,-152,82,25,419,-171
462,2,2022-09-30T20:43:06.319065,3350721,-5530,388,-557,5,-152,82,25,419,-171
463,2,2022-09-30T20:43:06.328027,3350730,-5529,391,-559,-59,-122,74,25,419,-171
464,2,2022-09-30T20:43:06.337343,3350740,-5529,391,-559,-59,-122,74,25,419,-171
465,2,2022-09-30T20:43:06.348477,3350750,-5530,391,-562,-126,-91,51,16,420,-166
466,2,2022-09-30T20:43:06.356635,3350759,-5530,391,-562,-126,-91,51,16,420,-166
467,2,2022-09-30T20:43:06.365744,3350768,-5542,391,-557,-195,-73,23,16,420,-166
468,2,2022-09-30T20:43:06.378783,3350781,-5542,391,-557,-195,-73,23,16,420,-166
469,2,2022-09-30T20:43:06.387365,3350790,-5530,385,-562,-215,-92,6,16,420,-166
470,2,2022-09-30T20:43:06.396927,3350796,-5530,385,-562,-215,-92,6,16,420,-166
471,2,2022-09-30T20:43:06.404776,3350808,-5529,387,-566,-227,-96,-23,16,420,-166
472,2,2022-09-30T20:43:06.412013,3350814,-5529,387,-566,-227,-96,-23,16,420,-166
473,2,2022-09-30T20:43:06.422423,3350821,-5529,387,-566,-227,-96,-23,16,420,-166
474,2,2022-09-30T20:43:06.429930,3350833,-5538,387,-567,-244,-32,-67,16,420,-166
475,2,2022-09-30T20:43:06.435603,3350839,-5538,387,-567,-244,-32,-67,16,420,-166
476,2,2022-09-30T20:43:06.443575,3350845,-5538,387,-567,-244,-32,-67,16,420,-166
477,2,2022-09-30T20:43:06.452150,3350855,-5549,380,-567,-228,-36,-113,16,420,-166
478,2,2022-09-30T20:43:06.461221,3350863,-5549,380,-567,-228,-36,-113,16,420,-166
479,2,2022-09-30T20:43:06.472579,3350872,-5542,375,-566,-167,-121,-179,16,420,-166
480,2,2022-09-30T20:43:06.480114,3350883,-5542,375,-566,-167,-121,-179,16,420,-166
481,2,2022-09-30T20:43:06.488611,3350891,-5530,381,-571,-140,-172,-220,16,418,-174
482,2,2022-09-30T20:43:06.497142,3350899,-5530,381,-571,-140,-172,-220,16,418,-174
483,2,2022-09-30T20:43:06.507695,3350910,-5532,380,-578,-119,-154,-207,16,418,-174
484,2,2022-09-30T20:43:06.513770,3350917,-5532,380,-578,-119,-154,-207,16,418,-174
485,2,2022-09-30T20:43:06.524501,3350927,-5538,378,-575,-81,-131,-178,16,418,-174
486,2,2022-09-30T20:43:06.531971,3350934,-5538,378,-575,-81,-131,-178,16,418,-174
487,2,2022-09-30T20:43:06.541031,3350943,-5538,378,-575,-81,-131,-178,16,418,-174
488,2,2022-09-30T20:43:06.549912,3350952,-5542,375,-571,-75,-165,-170,16,418,-174
489,2,2022-09-30T20:43:06.555370,3350959,-5542,375,-571,-75,-165,-170,16,418,-174
490,2,2022-09-30T20:43:06.562911,3350966,-5542,375,-571,-75,-165,-170,16,418,-174
491,2,2022-09-30T20:43:06.571822,3350974,-5540,373,-573,-85,-219,-179,16,418,-174
492,2,2022-09-30T20:43:06.581340,3350984,-5540,373,-573,-85,-219,-179,16,418,-174
493,2,2022-09-30T20:43:06.588810,3350991,-5536,374,-572,-95,-273,-194,16,418,-174
494,2,2022-09-30T20:43:06.595722,3350998,-5536,374,-572,-95,-273,-194,16,418,-174
495,2,2022-09-30T20:43:06.603066,3351006,-5536,374,-572,-95,-273,-194,16,418,-174
496,2,2022-09-30T20:43:06.610561,3351014,-5533,369,-562,-103,-295,-180,18,416,-168
497,2,2022-09-30T20:43:06.617500,3351019,-5533,369,-562,-103,-295,-180,18,416,-168
498,2,2022-09-30T20:43:06.628297,3351031,-5531,370,-564,-93,-306,-152,18,416,-168
499,2,2022-09-30T20:43:06.635658,3351038,-5531,370,-564,-93,-306,-152,18,416,-168
500,2,2022-09-30T20:43:06.644522,3351046,-5531,370,-564,-93,-306,-152,18,416,-168
501,2,2022-09-30T20:43:06.653804,3351056,-5526,371,-564,-84,-283,-102,18,416,-168
502,2,2022-09-30T20:43:06.662423,3351065,-5526,371,-564,-84,-283,-102,18,416,-168
503,2,2022-09-30T20:43:06.670272,3351072,-5523,370,-565,-86,-238,-55,18,416,-168
504,2,2022-09-30T20:43:06.679220,3351083,-5523,370,-565,-86,-238,-55,18,416,-168
505,2,2022-09-30T20:43:06.688116,3351091,-5525,372,-571,-90,-204,6,18,416,-168
506,2,2022-09-30T20:43:06.694473,3351096,-5525,372,-571,-90,-204,6,18,416,-168
507,2,2022-09-30T20:43:06.704042,3351107,-5525,372,-571,-90,-204,6,18,416,-168
508,2,2022-09-30T20:43:06.710215,3351113,-5528,374,-568,-105,-174,52,18,416,-168
509,2,2022-09-30T20:43:06.717340,3351118,-5528,374,-568,-105,-174,52,18,416,-168
510,2,2022-09-30T20:43:06.728410,3351131,-5532,380,-566,-135,-152,73,17,421,-169
511,2,2022-09-30T20:43:06.733735,3351137,-5532,380,-566,-135,-152,73,17,421,-169
512,2,2022-09-30T20:43:06.739375,3351142,-5532,380,-566,-135,-152,73,17,421,-169
513,2,2022-09-30T20:43:06.751073,3351154,-5536,382,-571,-170,-131,59,17,421,-169
514,2,2022-09-30T20:43:06.756794,3351159,-5536,382,-571,-170,-131,59,17,421,-169
515,2,2022-09-30T20:43:06.766071,3351168,-5539,386,-567,-209,-132,16,17,421,-169
516,2,2022-09-30T20:43:06.775956,3351179,-5539,386,-567,-209,-132,16,17,421,-169
517,2,2022-09-30T20:43:06.783294,3351186,-5539,386,-567,-209,-132,16,17,421,-169
518,2,2022-09-30T20:43:06.788837,3351191,-5536,386,-572,-228,-146,0,17,421,-169
519,2,2022-09-30T20:43:06.798850,3351201,-5536,386,-572,-228,-146,0,17,421,-169
520,2,2022-09-30T20:43:06.809062,3351212,-5536,383,-572,-236,-178,-9,17,421,-169
521,2,2022-09-30T20:43:06.816267,3351218,-5536,383,-572,-236,-178,-9,17,421,-169
522,2,2022-09-30T20:43:06.826117,3351229,-5536,383,-572,-236,-178,-9,17,421,-169
523,2,2022-09-30T20:43:06.834858,3351237,-5536,383,-572,-236,-178,-9,17,421,-169
524,2,2022-09-30T20:43:06.843201,3351244,-5536,383,-572,-236,-178,-9,17,421,-169
525,2,2022-09-30T20:43:06.853922,3351257,-5533,381,-565,-178,-224,-58,12,418,-174
526,2,2022-09-30T20:43:06.861319,3351264,-5533,381,-565,-178,-224,-58,12,418,-174
527,2,2022-09-30T20:43:06.871498,3351274,-5530,380,-572,-142,-222,-103,12,418,-174
528,2,2022-09-30T20:43:06.877227,3351280,-5530,380,-572,-142,-222,-103,12,418,-174
529,2,2022-09-30T20:43:06.887259,3351290,-5531,383,-573,-114,-202,-126,12,418,-174
530,2,2022-09-30T20:43:06.895496,3351296,-5531,383,-573,-114,-202,-126,12,418,-174
531,2,2022-09-30T20:43:06.905702,3351309,-5531,384,-575,-109,-187,-131,12,418,-174
532,2,2022-09-30T20:43:06.912891,3351315,-5531,384,-575,-109,-187,-131,12,418,-174
533,2,2022-09-30T20:43:06.923292,3351324,-5531,384,-575,-109,-187,-131,12,418,-174
534,2,2022-09-30T20:43:06.930492,3351333,-5527,387,-574,-114,-177,-140,12,418,-174
535,2,2022-09-30T20:43:06.936005,3351339,-5527,387,-574,-114,-177,-140,12,418,-174
536,2,2022-09-30T20:43:06.943109,3351346,-5527,387,-574,-114,-177,-140,12,418,-174
537,2,2022-09-30T20:43:06.952028,3351355,-5529,386,-570,-160,-176,-131,12,418,-174
538,2,2022-09-30T20:43:06.959908,3351360,-5529,386,-570,-160,-176,-131,12,418,-174
539,2,2022-09-30T20:43:06.968246,3351370,-5547,379,-565,-210,-184,-90,13,415,-171
540,2,2022-09-30T20:43:06.973939,3351376,-5547,379,-565,-210,-184,-90,13,415,-171
541,2,2022-09-30T20:43:06.981321,3351384,-5547,379,-565,-210,-184,-90,13,415,-171
542,2,2022-09-30T20:43:06.988631,3351392,-5548,374,-568,-243,-237,-72,13,415,-171
543,2,2022-09-30T20:43:06.996638,3351399,-5548,374,-568,-243,-237,-72,13,415,-171
544,2,2022-09-30T20:43:07.006096,3351409,-5534,372,-567,-227,-302,-35,13,415,-171
545,2,2022-09-30T20:43:07.013227,3351416,-5534,372,-567,-227,-302,-35,13,415,-171
546,2,2022-09-30T20:43:07.022035,3351424,-5534,372,-567,-227,-302,-35,13,415,-171
547,2,2022-09-30T20:43:07.029681,3351433,-5518,377,-569,-173,-332,12,13,415,-171
548,2,2022-09-30T20:43:07.035670,3351438,-5518,377,-569,-173,-332,12,13,415,-171
549,2,2022-09-30T20:43:07.043687,3351446,-5518,377,-569,-173,-332,12,13,415,-171
550,2,2022-09-30T20:43:07.055264,3351458,-5516,382,-562,-111,-279,70,13,415,-171
551,2,2022-09-30T20:43:07.064087,3351467,-5516,382,-562,-111,-279,70,13,415,-171
552,2,2022-09-30T20:43:07.074318,3351477,-5522,389,-564,-63,-192,92,13,415,-171
553,2,2022-09-30T20:43:07.082988,3351486,-5522,389,-564,-63,-192,92,13,415,-171
554,2,2022-09-30T20:43:07.090327,3351493,-5533,395,-570,-37,-133,96,13,415,-171
555,2,2022-09-30T20:43:07.101710,3351504,-5533,395,-570,-37,-133,96,13,415,-171
556,2,2022-09-30T20:43:07.108408,3351511,-5539,402,-563,-75,-134,62,13,429,-179
557,2,2022-09-30T20:43:07.114562,3351517,-5539,402,-563,-75,-134,62,13,429,-179
558,2,2022-09-30T20:43:07.126284,3351529,-5535,405,-566,-162,-147,3,13,429,-179
559,2,2022-09-30T20:43:07.135725,3351538,-5535,405,-566,-162,-147,3,13,429,-179
560,2,2022-09-30T20:43:07.143906,3351545,-5535,405,-566,-162,-147,3,13,429,-179
561,2,2022-09-30T20:43:07.149292,3351553,-5538,403,-571,-251,-167,-49,13,429,-179
562,2,2022-09-30T20:43:07.155277,3351558,-5538,403,-571,-251,-167,-49,13,429,-179
563,2,2022-09-30T20:43:07.162603,3351566,-5538,403,-571,-251,-167,-49,13,429,-179
564,2,2022-09-30T20:43:07.172299,3351574,-5543,395,-570,-315,-176,-87,13,429,-179
565,2,2022-09-30T20:43:07.182516,3351585,-5543,395,-570,-315,-176,-87,13,429,-179
566,2,2022-09-30T20:43:07.189875,3351592,-5544,387,-570,-345,-202,-129,13,429,-179
567,2,2022-09-30T20:43:07.199985,3351603,-5544,387,-570,-345,-202,-129,13,429,-179
568,2,2022-09-30T20:43:07.208351,3351611,-5522,386,-572,-332,-222,-171,13,429,-179
569,2,2022-09-30T20:43:07.220454,3351617,-5522,386,-572,-332,-222,-171,13,429,-179
570,2,2022-09-30T20:43:07.228591,3351631,-5526,382,-572,-305,-196,-199,26,424,-178
571,2,2022-09-30T20:43:07.236394,3351640,-5526,382,-572,-305,-196,-199,26,424,-178
572,2,2022-09-30T20:43:07.245957,3351647,-5526,382,-572,-305,-196,-199,26,424,-178
573,2,2022-09-30T20:43:07.254617,3351657,-5542,377,-568,-273,-143,-213,26,424,-178
574,2,2022-09-30T20:43:07.263829,3351666,-5542,377,-568,-273,-143,-213,26,424,-178
575,2,2022-09-30T20:43:07.273872,3351675,-5540,369,-569,-215,-194,-230,26,424,-178
576,2,2022-09-30T20:43:07.280015,3351683,-5540,369,-569,-215,-194,-230,26,424,-178
577,2,2022-09-30T20:43:07.287154,3351690,-5537,375,-575,-166,-253,-239,26,424,-178
578,2,2022-09-30T20:43:07.295095,3351696,-5537,375,-575,-166,-253,-239,26,424,-178
579,2,2022-09-30T20:43:07.304057,3351707,-5537,375,-575,-166,-253,-239,26,424,-178
580,2,2022-09-30T20:43:07.311461,3351714,-5528,378,-573,-153,-252,-190,26,424,-178
581,2,2022-09-30T20:43:07.318622,3351719,-5528,378,-573,-153,-252,-190,26,424,-178
582,2,2022-09-30T20:43:07.328435,3351732,-5528,381,-573,-142,-216,-118,26,424,-178
583,2,2022-09-30T20:43:07.335284,3351738,-5528,381,-573,-142,-216,-118,26,424,-178
584,2,2022-09-30T20:43:07.341629,3351744,-5528,381,-573,-142,-216,-118,26,424,-178
585,2,2022-09-30T20:43:07.353435,3351756,-5533,379,-570,-152,-205,-70,23,413,-171
586,2,2022-09-30T20:43:07.362481,3351766,-5533,379,-570,-152,-205,-70,23,413,-171
587,2,2022-09-30T20:43:07.371334,3351772,-5538,383,-569,-158,-214,-92,23,413,-171
588,2,2022-09-30T20:43:07.381012,3351784,-5538,383,-569,-158,-214,-92,23,413,-171
589,2,2022-09-30T20:43:07.389667,3351792,-5536,381,-567,-188,-234,-124,23,413,-171
590,2,2022-09-30T20:43:07.398466,3351801,-5536,381,-567,-188,-234,-124,23,413,-171
591,2,2022-09-30T20:43:07.409204,3351812,-5538,381,-565,-225,-246,-140,23,413,-171
592,2,2022-09-30T20:43:07.415142,3351818,-5538,381,-565,-225,-246,-140,23,413,-171
593,2,2022-09-30T20:43:07.427158,3351830,-5534,379,-569,-265,-261,-106,23,413,-171
594,2,2022-09-30T20:43:07.436248,3351839,-5534,379,-569,-265,-261,-106,23,413,-171
595,2,2022-09-30T20:43:07.444430,3351846,-5534,379,-569,-265,-261,-106,23,413,-171
596,2,2022-09-30T20:43:07.452376,3351855,-5532,374,-568,-277,-264,-39,23,413,-171
597,2,2022-09-30T20:43:07.459839,3351863,-5532,374,-568,-277,-264,-39,23,413,-171
598,2,2022-09-30T20:43:07.466671,3351869,-5526,371,-561,-241,-237,13,18,420,-166
599,2,2022-09-30T20:43:07.477799,3351880,-5526,371,-561,-241,-237,13,18,420,-166
600,2,2022-09-30T20:43:07.486463,3351889,-5527,378,-563,-196,-203,41,18,420,-166
601,2,2022-09-30T20:43:07.494451,3351897,-5527,378,-563,-196,-203,41,18,420,-166
602,2,2022-09-30T20:43:07.502848,3351906,-5527,378,-563,-196,-203,41,18,420,-166
603,2,2022-09-30T20:43:07.509996,3351913,-5531,379,-570,-162,-168,29,18,420,-166
604,2,2022-09-30T20:43:07.517153,3351919,-5531,379,-570,-162,-168,29,18,420,-166
605,2,2022-09-30T20:43:07.529452,3351932,-5533,385,-567,-139,-139,1,18,420,-166
606,2,2022-09-30T20:43:07.536733,3351940,-5533,385,-567,-139,-139,1,18,420,-166
607,2,2022-09-30T20:43:07.548316,3351950,-5536,392,-568,-155,-126,-22,18,420,-166
608,2,2022-09-30T20:43:07.558180,3351961,-5536,392,-568,-155,-126,-22,18,420,-166
609,2,2022-09-30T20:43:07.567899,3351970,-5531,394,-574,-190,-128,-14,18,420,-166
610,2,2022-09-30T20:43:07.577192,3351980,-5531,394,-574,-190,-128,-14,18,420,-166
611,2,2022-09-30T20:43:07.585526,3351989,-5538,392,-570,-233,-139,-1,18,420,-166
612,2,2022-09-30T20:43:07.595247,3351995,-5538,392,-570,-233,-139,-1,11,419,-175
613,2,2022-09-30T20:43:07.600836,3352003,-5538,392,-570,-233,-139,-1,11,419,-175
614,2,2022-09-30T20:43:07.608156,3352011,-5539,388,-572,-253,-170,1,11,419,-175
615,2,2022-09-30T20:43:07.614618,3352017,-5539,388,-572,-253,-170,1,11,419,-175
616,2,2022-09-30T20:43:07.624691,3352028,-5539,388,-572,-253,-170,1,11,419,-175
617,2,2022-09-30T20:43:07.633019,3352036,-5539,386,-577,-253,-196,-16,11,419,-175
618,2,2022-09-30T20:43:07.639711,3352042,-5539,386,-577,-253,-196,-16,11,419,-175
619,2,2022-09-30T20:43:07.649269,3352052,-5536,384,-576,-209,-206,-40,11,419,-175
620,2,2022-09-30T20:43:07.658870,3352061,-5536,384,-576,-209,-206,-40,11,419,-175
621,2,2022-09-30T20:43:07.669495,3352071,-5533,384,-571,-166,-210,-85,11,419,-175
622,2,2022-09-30T20:43:07.679906,3352082,-5533,384,-571,-166,-210,-85,11,419,-175
623,2,2022-09-30T20:43:07.689594,3352092,-5533,386,-572,-120,-214,-117,11,419,-175
624,2,2022-09-30T20:43:07.696387,3352099,-5533,386,-572,-120,-214,-117,11,419,-175
625,2,2022-09-30T20:43:07.702162,3352104,-5533,386,-572,-120,-214,-117,11,419,-175
626,2,2022-09-30T20:43:07.709626,3352113,-5529,393,-567,-90,-197,-122,11,419,-175
627,2,2022-09-30T20:43:07.715111,3352118,-5529,393,-567,-90,-197,-122,11,419,-175
628,2,2022-09-30T20:43:07.722177,3352125,-5529,393,-567,-90,-197,-122,11,419,-175
629,2,2022-09-30T20:43:07.731177,3352134,-5534,390,-568,-80,-206,-125,20,424,-168
630,2,2022-09-30T20:43:07.737045,3352139,-5534,390,-568,-80,-206,-125,20,424,-168
631,2,2022-09-30T20:43:07.744721,3352147,-5534,390,-568,-80,-206,-125,20,424,-168
632,2,2022-09-30T20:43:07.753868,3352157,-5538,392,-575,-100,-210,-105,20,424,-168
633,2,2022-09-30T20:43:07.761285,3352164,-5538,392,-575,-100,-210,-105,20,424,-168
634,2,2022-09-30T20:43:07.769409,3352171,-5527,396,-571,-132,-219,-83,20,424,-168
635,2,2022-09-30T20:43:07.776749,3352179,-5527,396,-571,-132,-219,-83,20,424,-168
636,2,2022-09-30T20:43:07.784254,3352187,-5527,396,-571,-132,-219,-83,20,424,-168
637,2,2022-09-30T20:43:07.789082,3352193,-5526,398,-571,-200,-218,-75,20,424,-168
638,2,2022-09-30T20:43:07.801375,3352204,-5526,398,-571,-200,-218,-75,20,424,-168
639,2,2022-09-30T20:43:07.845369,3352248,-5543,382,-571,-310,-244,-93,20,424,-168
640,2,2022-09-30T20:43:07.856780,3352259,-5542,379,-559,-301,-303,-98,20,428,-172
641,2,2022-09-30T20:43:07.865770,3352268,-5542,379,-559,-301,-303,-98,20,428,-172
642,2,2022-09-30T20:43:07.877454,3352281,-5526,381,-568,-246,-347,-73,20,428,-172
643,2,2022-09-30T20:43:07.887480,3352291,-5525,379,-568,-175,-287,-26,20,428,-172
644,2,2022-09-30T20:43:07.896296,3352297,-5525,379,-568,-175,-287,-26,20,428,-172
645,2,2022-09-30T20:43:07.904767,3352307,-5525,379,-568,-175,-287,-26,20,428,-172
646,2,2022-09-30T20:43:07.911575,3352314,-5516,387,-565,-100,-187,24,20,428,-172
647,2,2022-09-30T20:43:07.918201,3352320,-5516,387,-565,-100,-187,24,20,428,-172
648,2,2022-09-30T20:43:07.929217,3352332,-5548,389,-568,-35,-123,41,20,428,-172
649,2,2022-09-30T20:43:07.935493,3352338,-5548,389,-568,-35,-123,41,20,428,-172
650,2,2022-09-30T20:43:07.941553,3352344,-5548,389,-568,-35,-123,41,20,428,-172
651,2,2022-09-30T20:43:07.953008,3352355,-5532,397,-569,-37,-111,35,20,428,-172
652,2,2022-09-30T20:43:07.961957,3352365,-5532,397,-569,-37,-111,35,20,428,-172
653,2,2022-09-30T20:43:07.970923,3352372,-5547,398,-570,-69,-140,-16,15,415,-177
654,2,2022-09-30T20:43:07.980787,3352383,-5547,398,-570,-69,-140,-16,15,415,-177
655,2,2022-09-30T20:43:07.988679,3352391,-5538,395,-573,-133,-172,-57,15,415,-177
656,2,2022-09-30T20:43:07.997698,3352398,-5538,395,-573,-133,-172,-57,15,415,-177
657,2,2022-09-30T20:43:08.006064,3352409,-5540,390,-564,-173,-215,-80,15,415,-177
658,2,2022-09-30T20:43:08.013809,3352416,-5540,390,-564,-173,-215,-80,15,415,-177
659,2,2022-09-30T20:43:08.023246,3352426,-5540,390,-564,-173,-215,-80,15,415,-177
660,2,2022-09-30T20:43:08.032213,3352434,-5540,383,-567,-177,-273,-36,15,415,-177
661,2,2022-09-30T20:43:08.038014,3352440,-5540,383,-567,-177,-273,-36,15,415,-177
662,2,2022-09-30T20:43:08.045569,3352446,-5540,383,-567,-177,-273,-36,15,415,-177
663,2,2022-09-30T20:43:08.054245,3352457,-5529,378,-565,-138,-308,44,15,415,-177
664,2,2022-09-30T20:43:08.061016,3352464,-5529,378,-565,-138,-308,44,15,415,-177
665,2,2022-09-30T20:43:08.069325,3352471,-5513,380,-568,-54,-309,101,15,415,-177
666,2,2022-09-30T20:43:08.078349,3352481,-5513,380,-568,-54,-309,101,15,415,-177
667,2,2022-09-30T20:43:08.086919,3352491,-5534,375,-558,62,-284,117,15,425,-169
668,2,2022-09-30T20:43:08.095088,3352496,-5534,375,-558,62,-284,117,15,425,-169
669,2,2022-09-30T20:43:08.105759,3352508,-5534,375,-558,62,-284,117,15,425,-169
670,2,2022-09-30T20:43:08.113162,3352516,-5538,376,-551,164,-240,82,15,425,-169
671,2,2022-09-30T20:43:08.121961,3352524,-5538,376,-551,164,-240,82,15,425,-169
672,2,2022-09-30T20:43:08.130439,3352534,-5521,386,-553,239,-222,1,15,425,-169
673,2,2022-09-30T20:43:08.136004,3352539,-5521,386,-553,239,-222,1,15,425,-169
674,2,2022-09-30T20:43:08.144908,3352547,-5521,386,-553,239,-222,1,15,425,-169
675,2,2022-09-30T20:43:08.153013,3352556,-5519,399,-548,267,-174,-83,15,425,-169
676,2,2022-09-30T20:43:08.158579,3352561,-5519,399,-548,267,-174,-83,15,425,-169
677,2,2022-09-30T20:43:08.165683,3352568,-5519,399,-548,267,-174,-83,15,425,-169
678,2,2022-09-30T20:43:08.173639,3352577,-5528,408,-558,213,-108,-121,15,425,-169
679,2,2022-09-30T20:43:08.181362,3352584,-5528,408,-558,213,-108,-121,15,425,-169
680,2,2022-09-30T20:43:08.189325,3352592,-5538,405,-557,150,-73,-86,15,425,-169
681,2,2022-09-30T20:43:08.195628,3352598,-5538,405,-557,150,-73,-86,15,425,-169
682,2,2022-09-30T20:43:08.205109,3352608,-5538,405,-557,150,-73,-86,15,425,-169
683,2,2022-09-30T20:43:08.212310,3352615,-5536,396,-551,82,-93,-59,15,421,-177
684,2,2022-09-30T20:43:08.224659,3352627,-5536,396,-551,82,-93,-59,15,421,-177
685,2,2022-09-30T20:43:08.234259,3352637,-5533,391,-552,59,-123,-73,15,421,-177
686,2,2022-09-30T20:43:08.243790,3352644,-5533,391,-552,59,-123,-73,15,421,-177
687,2,2022-09-30T20:43:08.254806,3352657,-5538,384,-551,79,-141,-63,15,421,-177
688,2,2022-09-30T20:43:08.260558,3352664,-5538,384,-551,79,-141,-63,15,421,-177
689,2,2022-09-30T20:43:08.268617,3352671,-5528,381,-556,161,-140,1,15,421,-177
690,2,2022-09-30T20:43:08.275168,3352678,-5528,381,-556,161,-140,1,15,421,-177
691,2,2022-09-30T20:43:08.282170,3352685,-5528,381,-556,161,-140,1,15,421,-177
692,2,2022-09-30T20:43:08.288020,3352690,-5526,379,-546,305,-160,95,15,421,-177
693,2,2022-09-30T20:43:08.294422,3352696,-5526,379,-546,305,-160,95,15,421,-177
694,2,2022-09-30T20:43:08.304911,3352708,-5526,379,-546,305,-160,95,15,421,-177
695,2,2022-09-30T20:43:08.311844,3352715,-5531,383,-547,481,-187,176,15,421,-177
696,2,2022-09-30T20:43:08.319839,3352722,-5531,383,-547,481,-187,176,15,421,-177
697,2,2022-09-30T20:43:08.327303,3352730,-5535,392,-547,656,-195,249,15,421,-177
698,2,2022-09-30T20:43:08.333302,3352736,-5535,392,-547,656,-195,249,15,421,-177
699,2,2022-09-30T20:43:08.340351,3352743,-5535,392,-547,656,-195,249,15,421,-177
700,2,2022-09-30T20:43:08.351047,3352754,-5532,399,-542,838,-191,302,12,422,-176
701,2,2022-09-30T20:43:08.358468,3352761,-5532,399,-542,838,-191,302,12,422,-176
702,2,2022-09-30T20:43:08.366851,3352769,-5532,399,-542,838,-191,302,12,422,-176
703,2,2022-09-30T20:43:08.375854,3352778,-5528,406,-544,991,-190,333,12,422,-176
704,2,2022-09-30T20:43:08.382562,3352785,-5528,406,-544,991,-190,333,12,422,-176
705,2,2022-09-30T20:43:08.390039,3352793,-5533,414,-545,1087,-178,332,12,422,-176
706,2,2022-09-30T20:43:08.399420,3352802,-5533,414,-545,1087,-178,332,12,422,-176
707,2,2022-09-30T20:43:08.409302,3352812,-5528,414,-547,1161,-136,296,12,422,-176
708,2,2022-09-30T20:43:08.414927,3352817,-5528,414,-547,1161,-136,296,12,422,-176
709,2,2022-09-30T20:43:08.424176,3352826,-5528,414,-547,1161,-136,296,12,422,-176
710,2,2022-09-30T20:43:08.431736,3352835,-5522,425,-554,1217,-85,247,12,422,-176
711,2,2022-09-30T20:43:08.437327,3352840,-5522,425,-554,1217,-85,247,12,422,-176
712,2,2022-09-30T20:43:08.447258,3352848,-5522,425,-554,1217,-85,247,12,422,-176
713,2,2022-09-30T20:43:08.455021,3352858,-5520,424,-557,1241,-36,206,12,422,-176
714,2,2022-09-30T20:43:08.462692,3352865,-5520,424,-557,1241,-36,206,12,422,-176
715,2,2022-09-30T20:43:08.472180,3352875,-5519,430,-558,1256,21,175,16,420,-176
716,2,2022-09-30T20:43:08.480746,3352884,-5519,430,-558,1256,21,175,16,420,-176
717,2,2022-09-30T20:43:08.490099,3352893,-5525,431,-571,1260,111,160,16,420,-176
718,2,2022-09-30T20:43:08.498345,3352899,-5525,431,-571,1260,111,160,16,420,-176
719,2,2022-09-30T20:43:08.505826,3352908,-5525,431,-571,1260,111,160,16,420,-176
720,2,2022-09-30T20:43:08.513177,3352915,-5529,426,-570,1282,185,149,16,420,-176
721,2,2022-09-30T20:43:08.524220,3352924,-5529,426,-570,1282,185,149,16,420,-176
722,2,2022-09-30T20:43:08.533293,3352936,-5533,415,-582,1359,212,112,16,420,-176
723,2,2022-09-30T20:43:08.542080,3352944,-5533,415,-582,1359,212,112,16,420,-176
724,2,2022-09-30T20:43:08.550327,3352953,-5538,409,-584,1508,203,67,16,420,-176
725,2,2022-09-30T20:43:08.556215,3352958,-5538,409,-584,1508,203,67,16,420,-176
726,2,2022-09-30T20:43:08.563600,3352967,-5538,409,-584,1508,203,67,16,420,-176
727,2,2022-09-30T20:43:08.571162,3352974,-5540,406,-588,1718,197,14,16,420,-176
728,2,2022-09-30T20:43:08.580143,3352983,-5540,406,-588,1718,197,14,16,420,-176
729,2,2022-09-30T20:43:08.589407,3352991,-5544,402,-590,1966,190,-39,12,416,-182
730,2,2022-09-30T20:43:08.597524,3352998,-5544,402,-590,1966,190,-39,12,416,-182
731,2,2022-09-30T20:43:08.604729,3353008,-5544,402,-590,1966,190,-39,12,416,-182
732,2,2022-09-30T20:43:08.611928,3353015,-5540,401,-598,2242,186,-83,12,416,-182
733,2,2022-09-30T20:43:08.617508,3353020,-5540,401,-598,2242,186,-83,12,416,-182
734,2,2022-09-30T20:43:08.628622,3353031,-5532,405,-606,2491,171,-145,12,416,-182
735,2,2022-09-30T20:43:08.635897,3353039,-5532,405,-606,2491,171,-145,12,416,-182
736,2,2022-09-30T20:43:08.645356,3353047,-5532,405,-606,2491,171,-145,12,416,-182
737,2,2022-09-30T20:43:08.656027,3353059,-5546,404,-608,2712,148,-188,12,416,-182
738,2,2022-09-30T20:43:08.663024,3353066,-5546,404,-608,2712,148,-188,12,416,-182
739,2,2022-09-30T20:43:08.672334,3353072,-5560,394,-608,2920,52,-196,12,416,-182
740,2,2022-09-30T20:43:08.680921,3353083,-5560,394,-608,2920,52,-196,12,416,-182
741,2,2022-09-30T20:43:08.689786,3353093,-5561,391,-609,3133,-78,-228,12,416,-182
742,2,2022-09-30T20:43:08.699752,3353103,-5561,391,-609,3133,-78,-228,12,416,-182
743,2,2022-09-30T20:43:08.708592,3353111,-5548,388,-604,3388,-239,-223,9,423,-193
744,2,2022-09-30T20:43:08.714607,3353117,-5548,388,-604,3388,-239,-223,9,423,-193
745,2,2022-09-30T20:43:08.724851,3353127,-5548,388,-604,3388,-239,-223,9,423,-193
746,2,2022-09-30T20:43:08.731745,3353135,-5533,388,-605,3679,-360,-169,9,423,-193
747,2,2022-09-30T20:43:08.737980,3353141,-5533,388,-605,3679,-360,-169,9,423,-193
748,2,2022-09-30T20:43:08.746249,3353147,-5533,388,-605,3679,-360,-169,9,423,-193
749,2,2022-09-30T20:43:08.755622,3353158,-5525,390,-606,3980,-369,-108,9,423,-193
750,2,2022-09-30T20:43:08.762229,3353165,-5525,390,-606,3980,-369,-108,9,423,-193
751,2,2022-09-30T20:43:08.772800,3353175,-5529,394,-606,4282,-347,-48,9,423,-193
752,2,2022-09-30T20:43:08.779003,3353182,-5529,394,-606,4282,-347,-48,9,423,-193
753,2,2022-09-30T20:43:08.786280,3353189,-5529,394,-606,4282,-347,-48,9,423,-193
754,2,2022-09-30T20:43:08.794503,3353197,-5532,400,-604,4560,-341,-3,9,423,-193
755,2,2022-09-30T20:43:08.803283,3353206,-5532,400,-604,4560,-341,-3,9,423,-193
756,2,2022-09-30T20:43:08.812011,3353214,-5532,402,-603,4782,-351,16,9,423,-193
757,2,2022-09-30T20:43:08.818484,3353221,-5532,402,-603,4782,-351,16,9,423,-193
758,2,2022-09-30T20:43:08.825555,3353229,-5532,402,-603,4782,-351,16,9,423,-193
759,2,2022-09-30T20:43:08.832302,3353235,-5534,406,-594,4955,-358,-10,23,419,-203
760,2,2022-09-30T20:43:08.841039,3353244,-5534,406,-594,4955,-358,-10,23,419,-203
761,2,2022-09-30T20:43:08.848200,3353251,-5538,407,-594,5104,-374,-44,23,419,-203
762,2,2022-09-30T20:43:08.854223,3353256,-5538,407,-594,5104,-374,-44,23,419,-203
763,2,2022-09-30T20:43:08.862687,3353266,-5538,407,-594,5104,-374,-44,23,419,-203
764,2,2022-09-30T20:43:08.871158,3353274,-5539,409,-598,5236,-395,-70,23,419,-203
765,2,2022-09-30T20:43:08.877644,3353280,-5539,409,-598,5236,-395,-70,23,419,-203
766,2,2022-09-30T20:43:08.887214,3353290,-5540,407,-592,5369,-424,-61,23,419,-203
767,2,2022-09-30T20:43:08.898214,3353297,-5540,407,-592,5369,-424,-61,23,419,-203
768,2,2022-09-30T20:43:08.906615,3353310,-5528,407,-592,5537,-458,-31,23,419,-203
769,2,2022-09-30T20:43:08.913955,3353317,-5528,407,-592,5537,-458,-31,23,419,-203
770,2,2022-09-30T20:43:08.920614,3353322,-5528,407,-592,5537,-458,-31,23,419,-203
771,2,2022-09-30T20:43:08.930098,3353333,-5529,402,-595,5722,-441,-24,23,419,-203
772,2,2022-09-30T20:43:08.935970,3353338,-5529,402,-595,5722,-441,-24,23,419,-203
773,2,2022-09-30T20:43:08.944667,3353346,-5529,402,-595,5722,-441,-24,23,419,-203
774,2,2022-09-30T20:43:08.954742,3353358,-5543,394,-589,5930,-424,-59,23,419,-203
775,2,2022-09-30T20:43:08.960595,3353363,-5543,394,-589,5930,-424,-59,23,419,-203
776,2,2022-09-30T20:43:08.969233,3353371,-5538,394,-581,6161,-489,-104,35,427,-209
777,2,2022-09-30T20:43:08.980199,3353382,-5538,394,-581,6161,-489,-104,35,427,-209
778,2,2022-09-30T20:43:08.989797,3353393,-5536,402,-584,6395,-536,-156,35,427,-209
779,2,2022-09-30T20:43:08.996295,3353400,-5536,402,-584,6395,-536,-156,35,427,-209
780,2,2022-09-30T20:43:09.001898,3353405,-5536,402,-584,6395,-536,-156,35,427,-209
781,2,2022-09-30T20:43:09.008918,3353412,-5532,403,-586,6602,-519,-146,35,427,-209
782,2,2022-09-30T20:43:09.014474,3353417,-5532,403,-586,6602,-519,-146,35,427,-209
783,2,2022-09-30T20:43:09.021296,3353424,-5532,403,-586,6602,-519,-146,35,427,-209
784,2,2022-09-30T20:43:09.029726,3353433,-5529,408,-585,6787,-477,-102,35,427,-209
785,2,2022-09-30T20:43:09.035460,3353439,-5529,408,-585,6787,-477,-102,35,427,-209
786,2,2022-09-30T20:43:09.043742,3353446,-5529,408,-585,6787,-477,-102,35,427,-209
787,2,2022-09-30T20:43:09.053566,3353456,-5538,407,-582,6964,-447,-82,35,427,-209
788,2,2022-09-30T20:43:09.060478,3353463,-5538,407,-582,6964,-447,-82,35,427,-209
789,2,2022-09-30T20:43:09.068221,3353470,-5540,404,-578,7124,-455,-114,35,427,-209
790,2,2022-09-30T20:43:09.074853,3353478,-5540,404,-578,7124,-455,-114,35,427,-209
791,2,2022-09-30T20:43:09.081816,3353485,-5540,404,-578,7124,-455,-114,35,427,-209
792,2,2022-09-30T20:43:09.089231,3353492,-5540,402,-573,7265,-483,-207,35,423,-221
793,2,2022-09-30T20:43:09.096575,3353498,-5540,402,-573,7265,-483,-207,35,423,-221
794,2,2022-09-30T20:43:09.105314,3353508,-5540,402,-573,7265,-483,-207,35,423,-221
795,2,2022-09-30T20:43:09.112727,3353516,-5535,402,-576,7386,-494,-305,35,423,-221
796,2,2022-09-30T20:43:09.124742,3353528,-5535,402,-576,7386,-494,-305,35,423,-221
797,2,2022-09-30T20:43:09.132444,3353535,-5535,402,-576,7386,-494,-305,35,423,-221
798,2,2022-09-30T20:43:09.139905,3353542,-5535,402,-576,7386,-494,-305,35,423,-221
799,2,2022-09-30T20:43:09.149786,3353552,-5531,401,-571,7599,-480,-352,35,423,-221
800,2,2022-09-30T20:43:09.158338,3353562,-5531,401,-571,7599,-480,-352,35,423,-221
801,2,2022-09-30T20:43:09.165605,3353569,-5531,401,-571,7599,-480,-352,35,423,-221
802,2,2022-09-30T20:43:09.175505,3353578,-5527,393,-571,7710,-464,-330,35,423,-221
803,2,2022-09-30T20:43:09.182566,3353585,-5527,393,-571,7710,-464,-330,35,423,-221
804,2,2022-09-30T20:43:09.188544,3353591,-5526,391,-571,7845,-451,-320,35,423,-221
805,2,2022-09-30T20:43:09.196412,3353596,-5526,391,-571,7845,-451,-320,35,423,-221
806,2,2022-09-30T20:43:09.205393,3353608,-5526,391,-571,7845,-451,-320,35,423,-221
807,2,2022-09-30T20:43:09.212961,3353616,-5525,388,-564,7976,-418,-320,44,416,-222
808,2,2022-09-30T20:43:09.228811,3353632,-5529,386,-571,8092,-370,-315,44,416,-222
809,2,2022-09-30T20:43:09.235768,3353638,-5529,386,-571,8092,-370,-315,44,416,-222
810,2,2022-09-30T20:43:09.243376,3353646,-5529,386,-571,8092,-370,-315,44,416,-222
811,2,2022-09-30T20:43:09.255392,3353657,-5526,384,-570,8201,-328,-301,44,416,-222
812,2,2022-09-30T20:43:09.264159,3353667,-5526,384,-570,8201,-328,-301,44,416,-222
813,2,2022-09-30T20:43:09.275931,3353678,-5526,379,-570,8300,-302,-306,44,416,-222
814,2,2022-09-30T20:43:09.284004,3353687,-5526,379,-570,8300,-302,-306,44,416,-222
815,2,2022-09-30T20:43:09.292461,3353694,-5533,377,-574,8390,-271,-304,44,416,-222
816,2,2022-09-30T20:43:09.303302,3353706,-5533,377,-574,8390,-271,-304,44,416,-222
817,2,2022-09-30T20:43:09.312039,3353715,-5533,375,-577,8442,-250,-311,44,416,-222
818,2,2022-09-30T20:43:09.320791,3353723,-5533,375,-577,8442,-250,-311,44,416,-222
819,2,2022-09-30T20:43:09.329893,3353733,-5526,370,-571,8497,-233,-312,60,430,-238
820,2,2022-09-30T20:43:09.337723,3353741,-5526,370,-571,8497,-233,-312,60,430,-238
821,2,2022-09-30T20:43:09.344455,3353746,-5526,370,-571,8497,-233,-312,60,430,-238
822,2,2022-09-30T20:43:09.353509,3353756,-5530,364,-574,8551,-216,-318,60,430,-238
823,2,2022-09-30T20:43:09.361946,3353764,-5530,364,-574,8551,-216,-318,60,430,-238
824,2,2022-09-30T20:43:09.373280,3353776,-5534,359,-572,8630,-217,-329,60,430,-238
825,2,2022-09-30T20:43:09.382719,3353786,-5534,359,-572,8630,-217,-329,60,430,-238
826,2,2022-09-30T20:43:09.389671,3353793,-5534,353,-580,8716,-206,-330,60,430,-238
827,2,2022-09-30T20:43:09.396723,3353798,-5534,353,-580,8716,-206,-330,60,430,-238
828,2,2022-09-30T20:43:09.402445,3353805,-5534,353,-580,8716,-206,-330,60,430,-238
829,2,2022-09-30T20:43:09.409765,3353812,-5527,352,-580,8804,-176,-355,60,430,-238
830,2,2022-09-30T20:43:09.417411,3353819,-5527,352,-580,8804,-176,-355,60,430,-238
831,2,2022-09-30T20:43:09.426230,3353829,-5527,352,-580,8804,-176,-355,60,430,-238
832,2,2022-09-30T20:43:09.433550,3353836,-5525,347,-586,8908,-122,-363,60,430,-238
833,2,2022-09-30T20:43:09.443551,3353845,-5525,347,-586,8908,-122,-363,60,430,-238
834,2,2022-09-30T20:43:09.454081,3353857,-5533,346,-581,9006,-72,-365,80,428,-248
835,2,2022-09-30T20:43:09.461172,3353864,-5533,346,-581,9006,-72,-365,80,428,-248
836,2,2022-09-30T20:43:09.469968,3353872,-5533,342,-585,9104,-48,-347,80,428,-248
837,2,2022-09-30T20:43:09.481360,3353884,-5533,342,-585,9104,-48,-347,80,428,-248
838,2,2022-09-30T20:43:09.489571,3353892,-5535,343,-592,9179,-34,-360,80,428,-248
839,2,2022-09-30T20:43:09.497363,3353897,-5535,343,-592,9179,-34,-360,80,428,-248
840,2,2022-09-30T20:43:09.505839,3353909,-5535,343,-592,9179,-34,-360,80,428,-248
841,2,2022-09-30T20:43:09.512987,3353916,-5541,335,-600,9212,-10,-351,80,428,-248
842,2,2022-09-30T20:43:09.522232,3353923,-5541,335,-600,9212,-10,-351,80,428,-248
843,2,2022-09-30T20:43:09.529147,3353932,-5548,328,-600,9244,-23,-335,80,428,-248
844,2,2022-09-30T20:43:09.535555,3353938,-5548,328,-600,9244,-23,-335,80,428,-248
845,2,2022-09-30T20:43:09.544781,3353946,-5548,328,-600,9244,-23,-335,80,428,-248
846,2,2022-09-30T20:43:09.556506,3353959,-5540,320,-602,9282,-48,-316,80,428,-248
847,2,2022-09-30T20:43:09.562778,3353965,-5540,320,-602,9282,-48,-316,80,428,-248
848,2,2022-09-30T20:43:09.569896,3353972,-5533,316,-611,9353,-103,-267,80,428,-248
849,2,2022-09-30T20:43:09.576543,3353978,-5533,316,-611,9353,-103,-267,80,428,-248
850,2,2022-09-30T20:43:09.583666,3353987,-5533,316,-611,9353,-103,-267,80,428,-248
851,2,2022-09-30T20:43:09.590469,3353994,-5522,314,-606,9462,-123,-190,100,428,-258
852,2,2022-09-30T20:43:09.599490,3354002,-5522,314,-606,9462,-123,-190,100,428,-258
853,2,2022-09-30T20:43:09.607944,3354011,-5523,313,-610,9586,-90,-120,100,428,-258
854,2,2022-09-30T20:43:09.614812,3354018,-5523,313,-610,9586,-90,-120,100,428,-258
855,2,2022-09-30T20:43:09.626697,3354030,-5523,313,-610,9586,-90,-120,100,428,-258
856,2,2022-09-30T20:43:09.633913,3354037,-5525,315,-618,9721,-79,-62,100,428,-258
857,2,2022-09-30T20:43:09.639833,3354043,-5525,315,-618,9721,-79,-62,100,428,-258
858,2,2022-09-30T20:43:09.646242,3354049,-5525,315,-618,9721,-79,-62,100,428,-258
859,2,2022-09-30T20:43:09.653884,3354057,-5532,317,-615,9852,-77,-5,100,428,-258
860,2,2022-09-30T20:43:09.661114,3354064,-5532,317,-615,9852,-77,-5,100,428,-258
861,2,2022-09-30T20:43:09.669404,3354072,-5537,322,-618,9957,-107,39,100,428,-258
862,2,2022-09-30T20:43:09.679305,3354082,-5537,322,-618,9957,-107,39,100,428,-258
863,2,2022-09-30T20:43:09.686316,3354089,-5537,322,-618,9957,-107,39,100,428,-258
864,2,2022-09-30T20:43:09.694009,3354096,-5531,326,-621,10024,-155,74,100,428,-258
865,2,2022-09-30T20:43:09.703005,3354105,-5531,326,-621,10024,-155,74,100,428,-258
866,2,2022-09-30T20:43:09.710234,3354114,-5527,335,-612,10065,-187,107,123,425,-259
867,2,2022-09-30T20:43:09.720532,3354121,-5527,335,-612,10065,-187,107,123,425,-259
868,2,2022-09-30T20:43:09.729369,3354132,-5537,340,-619,10096,-224,135,123,425,-259
869,2,2022-09-30T20:43:09.737549,3354140,-5537,340,-619,10096,-224,135,123,425,-259
870,2,2022-09-30T20:43:09.744208,3354146,-5537,340,-619,10096,-224,135,123,425,-259
871,2,2022-09-30T20:43:09.754105,3354157,-5529,345,-615,10131,-239,169,123,425,-259
872,2,2022-09-30T20:43:09.762689,3354166,-5529,345,-615,10131,-239,169,123,425,-259
873,2,2022-09-30T20:43:09.770358,3354172,-5522,352,-618,10170,-230,213,123,425,-259
874,2,2022-09-30T20:43:09.781599,3354184,-5522,352,-618,10170,-230,213,123,425,-259
875,2,2022-09-30T20:43:09.789571,3354192,-5529,360,-619,10181,-170,236,123,425,-259
876,2,2022-09-30T20:43:09.797056,3354198,-5529,360,-619,10181,-170,236,123,425,-259
877,2,2022-09-30T20:43:09.805379,3354209,-5529,360,-619,10181,-170,236,123,425,-259
878,2,2022-09-30T20:43:09.812279,3354215,-5540,364,-617,10181,-128,208,123,425,-259
879,2,2022-09-30T20:43:09.818937,3354221,-5540,364,-617,10181,-128,208,123,425,-259
880,2,2022-09-30T20:43:09.830045,3354233,-5531,369,-619,10158,-145,136,139,415,-265
881,2,2022-09-30T20:43:09.836907,3354240,-5531,369,-619,10158,-145,136,139,415,-265
882,2,2022-09-30T20:43:09.844789,3354247,-5531,369,-619,10158,-145,136,139,415,-265
883,2,2022-09-30T20:43:09.853156,3354256,-5519,382,-621,10112,-132,67,139,415,-265
884,2,2022-09-30T20:43:09.858531,3354262,-5519,382,-621,10112,-132,67,139,415,-265
885,2,2022-09-30T20:43:09.863656,3354266,-5519,382,-621,10112,-132,67,139,415,-265
886,2,2022-09-30T20:43:09.874295,3354277,-5512,386,-627,10031,-52,66,139,415,-265
887,2,2022-09-30T20:43:09.882351,3354284,-5512,386,-627,10031,-52,66,139,415,-265
888,2,2022-09-30T20:43:09.889745,3354293,-5523,388,-638,9939,33,86,139,415,-265
889,2,2022-09-30T20:43:09.900437,3354303,-5523,388,-638,9939,33,86,139,415,-265
890,2,2022-09-30T20:43:09.909516,3354312,-5528,386,-634,9855,76,128,139,415,-265
891,2,2022-09-30T20:43:09.915305,3354318,-5528,386,-634,9855,76,128,139,415,-265
892,2,2022-09-30T20:43:09.926305,3354330,-5528,386,-634,9855,76,128,139,415,-265
893,2,2022-09-30T20:43:09.934237,3354337,-5522,387,-642,9779,79,109,139,415,-265
894,2,2022-09-30T20:43:09.939787,3354343,-5522,387,-642,9779,79,109,139,415,-265
895,2,2022-09-30T20:43:09.946261,3354349,-5522,387,-642,9779,79,109,139,415,-265
896,2,2022-09-30T20:43:09.956085,3354359,-5552,384,-650,9685,96,61,155,423,-257
897,2,2022-09-30T20:43:09.962968,3354365,-5552,384,-650,9685,96,61,155,423,-257
898,2,2022-09-30T20:43:09.969642,3354372,-5543,392,-658,9559,168,51,155,423,-257
899,2,2022-09-30T20:43:09.978732,3354382,-5543,392,-658,9559,168,51,155,423,-257
900,2,2022-09-30T20:43:09.984610,3354388,-5543,392,-658,9559,168,51,155,423,-257
901,2,2022-09-30T20:43:09.992506,3354395,-5529,390,-672,9448,235,75,155,423,-257
902,2,2022-09-30T20:43:09.998645,3354401,-5529,390,-672,9448,235,75,155,423,-257
903,2,2022-09-30T20:43:10.005801,3354408,-5529,390,-672,9448,235,75,155,423,-257
904,2,2022-09-30T20:43:10.013270,3354416,-5528,387,-675,9345,272,14,155,423,-257
905,2,2022-09-30T20:43:10.022746,3354426,-5528,387,-675,9345,272,14,155,423,-257
906,2,2022-09-30T20:43:10.032065,3354435,-5549,355,-680,9307,277,-115,155,423,-257
907,2,2022-09-30T20:43:10.038836,3354441,-5549,355,-680,9307,277,-115,155,423,-257
908,2,2022-09-30T20:43:10.049766,3354452,-5578,339,-693,9426,178,-272,155,423,-257
909,2,2022-09-30T20:43:10.058684,3354462,-5578,339,-693,9426,178,-272,155,423,-257
910,2,2022-09-30T20:43:10.065503,3354468,-5578,339,-693,9426,178,-272,155,423,-257
911,2,2022-09-30T20:43:10.074264,3354476,-5577,322,-696,9578,41,-509,184,416,-254
912,2,2022-09-30T20:43:10.083844,3354487,-5577,322,-696,9578,41,-509,184,416,-254
913,2,2022-09-30T20:43:10.089871,3354492,-5578,311,-696,9729,-99,-732,184,416,-254
914,2,2022-09-30T20:43:10.097866,3354499,-5578,311,-696,9729,-99,-732,184,416,-254
915,2,2022-09-30T20:43:10.106665,3354510,-5578,311,-696,9729,-99,-732,184,416,-254
916,2,2022-09-30T20:43:10.113977,3354517,-5589,286,-691,9874,-285,-931,184,416,-254
917,2,2022-09-30T20:43:10.125656,3354525,-5589,286,-691,9874,-285,-931,184,416,-254
918,2,2022-09-30T20:43:10.134253,3354537,-5585,269,-683,10034,-568,-1043,184,416,-254
919,2,2022-09-30T20:43:10.141682,3354545,-5585,269,-683,10034,-568,-1043,184,416,-254
920,2,2022-09-30T20:43:10.147814,3354551,-5585,269,-683,10034,-568,-1043,184,416,-254
921,2,2022-09-30T20:43:10.153628,3354557,-5581,251,-666,10193,-896,-1054,184,416,-254
922,2,2022-09-30T20:43:10.163353,3354566,-5581,251,-666,10193,-896,-1054,184,416,-254
923,2,2022-09-30T20:43:10.170042,3354572,-5558,229,-651,10364,-1244,-967,184,416,-254
924,2,2022-09-30T20:43:10.177575,3354580,-5558,229,-651,10364,-1244,-967,184,416,-254
925,2,2022-09-30T20:43:10.184754,3354588,-5558,229,-651,10364,-1244,-967,184,416,-254
926,2,2022-09-30T20:43:10.192678,3354595,-5541,218,-635,10546,-1558,-817,184,416,-254
927,2,2022-09-30T20:43:10.201538,3354603,-5541,218,-635,10546,-1558,-817,184,416,-254
928,2,2022-09-30T20:43:10.209503,3354612,-5537,208,-610,10753,-1806,-579,199,421,-239
929,2,2022-09-30T20:43:10.220321,3354621,-5537,208,-610,10753,-1806,-579,199,421,-239
930,2,2022-09-30T20:43:10.229970,3354633,-5526,208,-593,10981,-2001,-273,199,421,-239
931,2,2022-09-30T20:43:10.237535,3354640,-5526,208,-593,10981,-2001,-273,199,421,-239
932,2,2022-09-30T20:43:10.245599,3354647,-5526,208,-593,10981,-2001,-273,199,421,-239
933,2,2022-09-30T20:43:10.253506,3354656,-5521,218,-568,11221,-2157,87,199,421,-239
934,2,2022-09-30T20:43:10.259272,3354662,-5521,218,-568,11221,-2157,87,199,421,-239
935,2,2022-09-30T20:43:10.265490,3354669,-5521,218,-568,11221,-2157,87,199,421,-239
936,2,2022-09-30T20:43:10.275833,3354679,-5513,236,-546,11460,-2284,459,199,421,-239
937,2,2022-09-30T20:43:10.285310,3354688,-5513,236,-546,11460,-2284,459,199,421,-239
938,2,2022-09-30T20:43:10.292475,3354695,-5505,263,-528,11624,-2376,806,199,421,-239
939,2,2022-09-30T20:43:10.303533,3354706,-5505,263,-528,11624,-2376,806,199,421,-239
940,2,2022-09-30T20:43:10.312082,3354715,-5493,295,-508,11693,-2358,1091,199,421,-239
941,2,2022-09-30T20:43:10.319456,3354721,-5493,295,-508,11693,-2358,1091,199,421,-239
942,2,2022-09-30T20:43:10.328818,3354732,-5487,333,-495,11639,-2230,1287,220,422,-220
943,2,2022-09-30T20:43:10.337996,3354741,-5487,333,-495,11639,-2230,1287,220,422,-220
944,2,2022-09-30T20:43:10.345034,3354747,-5487,333,-495,11639,-2230,1287,220,422,-220
945,2,2022-09-30T20:43:10.354344,3354758,-5485,373,-480,11448,-2025,1407,220,422,-220
946,2,2022-09-30T20:43:10.361635,3354765,-5485,373,-480,11448,-2025,1407,220,422,-220
947,2,2022-09-30T20:43:10.369682,3354772,-5495,410,-474,11139,-1815,1490,220,422,-220
948,2,2022-09-30T20:43:10.377996,3354781,-5495,410,-474,11139,-1815,1490,220,422,-220
949,2,2022-09-30T20:43:10.385699,3354788,-5495,410,-474,11139,-1815,1490,220,422,-220
950,2,2022-09-30T20:43:10.392944,3354796,-5499,439,-466,10735,-1602,1519,220,422,-220
951,2,2022-09-30T20:43:10.402521,3354806,-5499,439,-466,10735,-1602,1519,220,422,-220
952,2,2022-09-30T20:43:10.411019,3354814,-5494,470,-456,10237,-1370,1479,220,422,-220
953,2,2022-09-30T20:43:10.417579,3354820,-5494,470,-456,10237,-1370,1479,220,422,-220
954,2,2022-09-30T20:43:10.427405,3354830,-5494,470,-456,10237,-1370,1479,220,422,-220
955,2,2022-09-30T20:43:10.434927,3354838,-5476,494,-457,9684,-1084,1375,220,422,-220
956,2,2022-09-30T20:43:10.443832,3354846,-5476,494,-457,9684,-1084,1375,220,422,-220
957,2,2022-09-30T20:43:10.453301,3354856,-5481,514,-453,9045,-722,1174,217,431,-199
958,2,2022-09-30T20:43:10.460725,3354864,-5481,514,-453,9045,-722,1174,217,431,-199
959,2,2022-09-30T20:43:10.466337,3354869,-5481,514,-453,9045,-722,1174,217,431,-199
960,2,2022-09-30T20:43:10.476908,3354880,-5490,526,-462,8361,-320,955,217,431,-199
961,2,2022-09-30T20:43:10.484569,3354888,-5490,526,-462,8361,-320,955,217,431,-199
962,2,2022-09-30T20:43:10.492888,3354895,-5506,525,-469,7654,61,728,217,431,-199
963,2,2022-09-30T20:43:10.503185,3354906,-5506,525,-469,7654,61,728,217,431,-199
964,2,2022-09-30T20:43:10.511579,3354914,-5519,517,-477,6991,334,509,217,431,-199
965,2,2022-09-30T20:43:10.520277,3354920,-5519,517,-477,6991,334,509,217,431,-199
966,2,2022-09-30T20:43:10.528583,3354932,-5532,500,-482,6372,481,280,217,431,-199
967,2,2022-09-30T20:43:10.536367,3354939,-5532,500,-482,6372,481,280,217,431,-199
968,2,2022-09-30T20:43:10.544687,3354947,-5532,500,-482,6372,481,280,217,431,-199
969,2,2022-09-30T20:43:10.553911,3354957,-5533,478,-497,5826,572,56,217,431,-199
970,2,2022-09-30T20:43:10.563756,3354967,-5533,478,-497,5826,572,56,217,431,-199
971,2,2022-09-30T20:43:10.571473,3354974,-5532,457,-504,5386,659,-135,223,431,-189
972,2,2022-09-30T20:43:10.580588,3354984,-5532,457,-504,5386,659,-135,223,431,-189
973,2,2022-09-30T20:43:10.587891,3354991,-5532,457,-504,5386,659,-135,223,431,-189
974,2,2022-09-30T20:43:10.596096,3354998,-5534,439,-522,5058,717,-257,223,431,-189
975,2,2022-09-30T20:43:10.604006,3355006,-5534,439,-522,5058,717,-257,223,431,-189
976,2,2022-09-30T20:43:10.611445,3355015,-5529,425,-534,4859,758,-319,223,431,-189
977,2,2022-09-30T20:43:10.617851,3355020,-5529,425,-534,4859,758,-319,223,431,-189
978,2,2022-09-30T20:43:10.624841,3355028,-5529,425,-534,4859,758,-319,223,431,-189
979,2,2022-09-30T20:43:10.632933,3355036,-5535,409,-546,4720,776,-361,223,431,-189
980,2,2022-09-30T20:43:10.640630,3355043,-5535,409,-546,4720,776,-361,223,431,-189
981,2,2022-09-30T20:43:10.648595,3355051,-5535,409,-546,4720,776,-361,223,431,-189
982,2,2022-09-30T20:43:10.656860,3355060,-5531,409,-557,4597,818,-421,223,431,-189
983,2,2022-09-30T20:43:10.662575,3355066,-5531,409,-557,4597,818,-421,223,431,-189
984,2,2022-09-30T20:43:10.670850,3355072,-5538,402,-558,4470,840,-444,223,431,-189
985,2,2022-09-30T20:43:10.679285,3355082,-5538,402,-558,4470,840,-444,223,431,-189
986,2,2022-09-30T20:43:10.686084,3355089,-5538,402,-558,4470,840,-444,223,431,-189
987,2,2022-09-30T20:43:10.694445,3355097,-5540,401,-565,4337,776,-446,233,429,-183
988,2,2022-09-30T20:43:10.705372,3355108,-5540,401,-565,4337,776,-446,233,429,-183
989,2,2022-09-30T20:43:10.712789,3355116,-5530,404,-581,4211,722,-433,233,429,-183
990,2,2022-09-30T20:43:10.720566,3355121,-5530,404,-581,4211,722,-433,233,429,-183
991,2,2022-09-30T20:43:10.729528,3355132,-5558,405,-586,4052,703,-324,233,429,-183
992,2,2022-09-30T20:43:10.736819,3355140,-5558,405,-586,4052,703,-324,233,429,-183
993,2,2022-09-30T20:43:10.744891,3355147,-5558,405,-586,4052,703,-324,233,429,-183
994,2,2022-09-30T20:43:10.755499,3355158,-5531,403,-598,3884,691,-181,233,429,-183
995,2,2022-09-30T20:43:10.761277,3355164,-5531,403,-598,3884,691,-181,233,429,-183
996,2,2022-09-30T20:43:10.770084,3355171,-5531,393,-604,3728,667,-116,233,429,-183
997,2,2022-09-30T20:43:10.776484,3355180,-5531,393,-604,3728,667,-116,233,429,-183
998,2,2022-09-30T20:43:10.786057,3355189,-5531,393,-604,3728,667,-116,233,429,-183
999,2,2022-09-30T20:43:10.795031,3355197,-5527,394,-604,3582,636,-132,233,429,-183
1000,2,2022-09-30T20:43:10.804987,3355208,-5527,394,-604,3582,636,-132,233,429,-183
1001,2,2022-09-30T20:43:10.812283,3355215,-5524,401,-617,3410,604,-158,233,429,-183
1002,2,2022-09-30T20:43:10.820701,3355222,-5524,401,-617,3410,604,-158,233,429,-183
1003,2,2022-09-30T20:43:10.830452,3355234,-5531,412,-619,3219,602,-110,243,423,-175
1004,2,2022-09-30T20:43:10.837301,3355240,-5531,412,-619,3219,602,-110,243,423,-175
1005,2,2022-09-30T20:43:10.846093,3355248,-5531,412,-619,3219,602,-110,243,423,-175
1006,2,2022-09-30T20:43:10.855531,3355258,-5530,418,-622,3005,588,42,243,423,-175
1007,2,2022-09-30T20:43:10.862551,3355266,-5530,418,-622,3005,588,42,243,423,-175
1008,2,2022-09-30T20:43:10.870313,3355273,-5539,423,-628,2747,541,212,243,423,-175
1009,2,2022-09-30T20:43:10.877484,3355280,-5539,423,-628,2747,541,212,243,423,-175
1010,2,2022-09-30T20:43:10.885499,3355288,-5539,423,-628,2747,541,212,243,423,-175
1011,2,2022-09-30T20:43:10.894298,3355296,-5553,424,-633,2474,429,366,243,423,-175
1012,2,2022-09-30T20:43:10.904790,3355308,-5553,424,-633,2474,429,366,243,423,-175
1013,2,2022-09-30T20:43:10.911954,3355315,-5548,437,-641,2159,261,511,243,423,-175
1014,2,2022-09-30T20:43:10.920371,3355323,-5548,437,-641,2159,261,511,243,423,-175
1015,2,2022-09-30T20:43:10.926218,3355329,-5548,437,-641,2159,261,511,243,423,-175
1016,2,2022-09-30T20:43:10.934760,3355338,-5543,449,-649,1802,85,590,243,423,-175
1017,2,2022-09-30T20:43:10.941498,3355344,-5543,449,-649,1802,85,590,243,423,-175
1018,2,2022-09-30T20:43:10.950975,3355354,-5544,459,-643,1437,-41,656,244,418,-164
1019,2,2022-09-30T20:43:10.959609,3355363,-5544,459,-643,1437,-41,656,244,418,-164
1020,2,2022-09-30T20:43:10.968210,3355370,-5544,459,-643,1437,-41,656,244,418,-164
1021,2,2022-09-30T20:43:10.979184,3355382,-5537,469,-641,1084,-130,683,244,418,-164
1022,2,2022-09-30T20:43:10.989018,3355392,-5537,473,-645,760,-182,668,244,418,-164
1023,2,2022-09-30T20:43:10.997261,3355400,-5537,473,-645,760,-182,668,244,418,-164
1024,2,2022-09-30T20:43:11.003044,3355406,-5537,473,-645,760,-182,668,244,418,-164
1025,2,2022-09-30T20:43:11.010372,3355413,-5538,479,-634,465,-200,636,244,418,-164
1026,2,2022-09-30T20:43:11.016088,3355419,-5538,479,-634,465,-200,636,244,418,-164
1027,2,2022-09-30T20:43:11.027429,3355430,-5538,479,-634,465,-200,636,244,418,-164
1028,2,2022-09-30T20:43:11.034930,3355438,-5539,482,-639,194,-209,592,244,418,-164
1029,2,2022-09-30T20:43:11.045026,3355447,-5539,482,-639,194,-209,592,244,418,-164
1030,2,2022-09-30T20:43:11.055116,3355458,-5542,493,-635,-80,-222,514,244,418,-164
1031,2,2022-09-30T20:43:11.063466,3355466,-5542,493,-635,-80,-222,514,244,418,-164
1032,2,2022-09-30T20:43:11.071499,3355473,-5542,500,-629,-352,-247,397,234,424,-176
1033,2,2022-09-30T20:43:11.079664,3355483,-5542,500,-629,-352,-247,397,234,424,-176
1034,2,2022-09-30T20:43:11.088806,3355492,-5537,505,-628,-668,-260,278,234,424,-176
1035,2,2022-09-30T20:43:11.099460,3355502,-5537,505,-628,-668,-260,278,234,424,-176
1036,2,2022-09-30T20:43:11.108170,3355511,-5537,505,-628,-668,-260,278,234,424,-176
1037,2,2022-09-30T20:43:11.115414,3355518,-5536,507,-625,-994,-277,163,234,424,-176
1038,2,2022-09-30T20:43:11.125339,3355528,-5536,507,-625,-994,-277,163,234,424,-176
1039,2,2022-09-30T20:43:11.134023,3355537,-5536,507,-625,-1353,-248,59,234,424,-176
1040,2,2022-09-30T20:43:11.145625,3355548,-5536,507,-625,-1353,-248,59,234,424,-176
1041,2,2022-09-30T20:43:11.154943,3355558,-5526,504,-619,-1699,-210,-26,234,424,-176
1042,2,2022-09-30T20:43:11.162602,3355566,-5526,504,-619,-1699,-210,-26,234,424,-176
1043,2,2022-09-30T20:43:11.170709,3355573,-5528,498,-618,-2042,-186,-87,234,424,-176
1044,2,2022-09-30T20:43:11.180720,3355584,-5528,498,-618,-2042,-186,-87,234,424,-176
1045,2,2022-09-30T20:43:11.189136,3355592,-5533,496,-618,-2370,-175,-155,233,433,-175
1046,2,2022-09-30T20:43:11.200095,3355603,-5533,496,-618,-2370,-175,-155,233,433,-175
1047,2,2022-09-30T20:43:11.205656,3355609,-5533,496,-618,-2370,-175,-155,233,433,-175
1048,2,2022-09-30T20:43:11.215367,3355617,-5533,495,-615,-2700,-189,-185,233,433,-175
1049,2,2022-09-30T20:43:11.227474,3355630,-5533,495,-615,-2700,-189,-185,233,433,-175
1050,2,2022-09-30T20:43:11.236000,3355638,-5530,497,-609,-3043,-208,-204,233,433,-175
1051,2,2022-09-30T20:43:11.245282,3355648,-5530,497,-609,-3043,-208,-204,233,433,-175
1052,2,2022-09-30T20:43:11.255598,3355658,-5536,496,-602,-3397,-231,-182,233,433,-175
1053,2,2022-09-30T20:43:11.262942,3355666,-5536,496,-602,-3397,-231,-182,233,433,-175
1054,2,2022-09-30T20:43:11.269700,3355672,-5536,496,-602,-3397,-231,-182,233,433,-175
1055,2,2022-09-30T20:43:11.276295,3355679,-5542,489,-604,-3757,-256,-180,233,433,-175
1056,2,2022-09-30T20:43:11.286188,3355689,-5542,489,-604,-3757,-256,-180,233,433,-175
1057,2,2022-09-30T20:43:11.294585,3355697,-5532,484,-603,-4058,-261,-185,233,433,-175
1058,2,2022-09-30T20:43:11.309583,3355713,-5517,487,-601,-4319,-260,-172,233,421,-183
1059,2,2022-09-30T20:43:11.316851,3355720,-5517,487,-601,-4319,-260,-172,233,421,-183
1060,2,2022-09-30T20:43:11.324529,3355726,-5517,487,-601,-4319,-260,-172,233,421,-183
1061,2,2022-09-30T20:43:11.332967,3355736,-5515,489,-598,-4581,-187,-165,233,421,-183
1062,2,2022-09-30T20:43:11.338871,3355742,-5515,489,-598,-4581,-187,-165,233,421,-183
1063,2,2022-09-30T20:43:11.348988,3355751,-5515,489,-598,-4581,-187,-165,233,421,-183
1064,2,2022-09-30T20:43:11.356957,3355760,-5518,489,-604,-4858,-51,-181,233,421,-183
1065,2,2022-09-30T20:43:11.364097,3355767,-5518,489,-604,-4858,-51,-181,233,421,-183
1066,2,2022-09-30T20:43:11.371647,3355772,-5525,493,-609,-5165,59,-232,233,421,-183
1067,2,2022-09-30T20:43:11.381709,3355785,-5525,493,-609,-5165,59,-232,233,421,-183
1068,2,2022-09-30T20:43:11.389813,3355793,-5534,493,-610,-5530,117,-329,233,421,-183
1069,2,2022-09-30T20:43:11.403340,3355806,-5534,493,-610,-5530,117,-329,233,421,-183
1070,2,2022-09-30T20:43:11.412421,3355815,-5532,490,-614,-5909,132,-433,233,421,-183
1071,2,2022-09-30T20:43:11.418587,3355822,-5532,490,-614,-5909,132,-433,233,421,-183
1072,2,2022-09-30T20:43:11.427534,3355831,-5532,490,-614,-5909,132,-433,233,421,-183
1073,2,2022-09-30T20:43:11.435927,3355839,-5535,481,-623,-6305,141,-515,233,421,-183
1074,2,2022-09-30T20:43:11.445267,3355847,-5535,481,-623,-6305,141,-515,233,421,-183
1075,2,2022-09-30T20:43:11.453564,3355856,-5533,472,-617,-6698,156,-551,230,424,-190
1076,2,2022-09-30T20:43:11.463932,3355867,-5533,472,-617,-6698,156,-551,230,424,-190
1077,2,2022-09-30T20:43:11.471783,3355872,-5539,458,-629,-7041,151,-537,230,424,-190
1078,2,2022-09-30T20:43:11.481120,3355884,-5539,458,-629,-7041,151,-537,230,424,-190
1079,2,2022-09-30T20:43:11.488273,3355891,-5539,458,-629,-7041,151,-537,230,424,-190
1080,2,2022-09-30T20:43:11.496829,3355898,-5534,447,-628,-7317,149,-533,230,424,-190
1081,2,2022-09-30T20:43:11.506329,3355909,-5534,447,-628,-7317,149,-533,230,424,-190
1082,2,2022-09-30T20:43:11.514716,3355918,-5534,447,-628,-7317,149,-533,230,424,-190
1083,2,2022-09-30T20:43:11.522358,3355925,-5534,447,-628,-7317,149,-533,230,424,-190
1084,2,2022-09-30T20:43:11.528543,3355931,-5534,447,-628,-7317,149,-533,230,424,-190
1085,2,2022-09-30T20:43:11.536257,3355939,-5531,436,-635,-7756,199,-552,230,424,-190
1086,2,2022-09-30T20:43:11.546128,3355949,-5531,436,-635,-7756,199,-552,230,424,-190
1087,2,2022-09-30T20:43:11.555900,3355958,-5541,428,-630,-7948,232,-567,230,424,-190
1088,2,2022-09-30T20:43:11.567616,3355970,-5541,428,-630,-7948,232,-567,230,424,-190
1089,2,2022-09-30T20:43:11.575111,3355978,-5537,429,-624,-8122,153,-572,220,422,-208
1090,2,2022-09-30T20:43:11.583990,3355987,-5537,429,-624,-8122,153,-572,220,422,-208
1091,2,2022-09-30T20:43:11.590955,3355995,-5535,434,-623,-8346,83,-582,220,422,-208
1092,2,2022-09-30T20:43:11.599680,3356003,-5535,434,-623,-8346,83,-582,220,422,-208
1093,2,2022-09-30T20:43:11.607505,3356011,-5535,434,-623,-8346,83,-582,220,422,-208
1094,2,2022-09-30T20:43:11.628268,3356018,-5529,432,-625,-8581,82,-539,220,422,-208
1095,2,2022-09-30T20:43:11.636641,3356039,-5523,432,-626,-8820,129,-458,220,422,-208
1096,2,2022-09-30T20:43:11.645850,3356047,-5523,432,-626,-8820,129,-458,220,422,-208
1097,2,2022-09-30T20:43:11.656037,3356059,-5524,433,-624,-9063,170,-371,220,422,-208
1098,2,2022-09-30T20:43:11.662664,3356065,-5524,433,-624,-9063,170,-371,220,422,-208
1099,2,2022-09-30T20:43:11.671254,3356072,-5536,431,-626,-9289,163,-303,220,422,-208
1100,2,2022-09-30T20:43:11.680407,3356084,-5536,431,-626,-9289,163,-303,220,422,-208
1101,2,2022-09-30T20:43:11.686079,3356089,-5536,431,-626,-9289,163,-303,220,422,-208
1102,2,2022-09-30T20:43:11.693552,3356096,-5538,426,-620,-9544,117,-327,208,432,-214
1103,2,2022-09-30T20:43:11.703826,3356107,-5538,426,-620,-9544,117,-327,208,432,-214
1104,2,2022-09-30T20:43:11.712869,3356115,-5536,424,-619,-9804,75,-389,208,432,-214
1105,2,2022-09-30T20:43:11.719613,3356123,-5536,424,-619,-9804,75,-389,208,432,-214
1106,2,2022-09-30T20:43:11.726896,3356130,-5536,424,-619,-9804,75,-389,208,432,-214
1107,2,2022-09-30T20:43:11.733710,3356137,-5538,421,-622,-10051,44,-449,208,432,-214
1108,2,2022-09-30T20:43:11.742031,3356144,-5538,421,-622,-10051,44,-449,208,432,-214
1109,2,2022-09-30T20:43:11.749081,3356152,-5538,421,-622,-10051,44,-449,208,432,-214
1110,2,2022-09-30T20:43:11.758441,3356162,-5535,418,-619,-10276,27,-453,208,432,-214
1111,2,2022-09-30T20:43:11.763807,3356167,-5535,418,-619,-10276,27,-453,208,432,-214
1112,2,2022-09-30T20:43:11.771377,3356174,-5532,416,-621,-10484,13,-444,208,432,-214
1113,2,2022-09-30T20:43:11.777572,3356181,-5532,416,-621,-10484,13,-444,208,432,-214
1114,2,2022-09-30T20:43:11.786349,3356189,-5532,416,-621,-10484,13,-444,208,432,-214
1115,2,2022-09-30T20:43:11.794890,3356196,-5530,410,-618,-10660,26,-417,208,432,-214
1116,2,2022-09-30T20:43:11.805861,3356209,-5530,410,-618,-10660,26,-417,208,432,-214
1117,2,2022-09-30T20:43:11.813168,3356217,-5532,404,-609,-10821,33,-404,193,421,-241
1118,2,2022-09-30T20:43:11.820393,3356222,-5532,404,-609,-10821,33,-404,193,421,-241
1119,2,2022-09-30T20:43:11.832229,3356235,-5536,404,-604,-10961,10,-406,193,421,-241
1120,2,2022-09-30T20:43:11.840456,3356243,-5536,404,-604,-10961,10,-406,193,421,-241
1121,2,2022-09-30T20:43:11.849145,3356251,-5536,404,-604,-10961,10,-406,193,421,-241
1122,2,2022-09-30T20:43:11.855444,3356258,-5538,400,-604,-11102,-23,-406,193,421,-241
1123,2,2022-09-30T20:43:11.864207,3356267,-5538,400,-604,-11102,-23,-406,193,421,-241
1124,2,2022-09-30T20:43:11.871821,3356274,-5541,399,-605,-11223,-46,-410,193,421,-241
1125,2,2022-09-30T20:43:11.885368,3356288,-5541,399,-605,-11223,-46,-410,193,421,-241
1126,2,2022-09-30T20:43:11.898402,3356302,-5539,397,-602,-11355,-74,-417,193,421,-241
1127,2,2022-09-30T20:43:11.907225,3356310,-5539,397,-602,-11355,-74,-417,193,421,-241
1128,2,2022-09-30T20:43:11.914048,3356317,-5537,395,-598,-11499,-95,-424,193,421,-241
1129,2,2022-09-30T20:43:11.919750,3356322,-5537,395,-598,-11499,-95,-424,193,421,-241
1130,2,2022-09-30T20:43:11.926067,3356328,-5537,395,-598,-11499,-95,-424,193,421,-241
1131,2,2022-09-30T20:43:11.934725,3356338,-5538,392,-596,-11639,-107,-418,176,422,-242
1132,2,2022-09-30T20:43:11.945826,3356349,-5538,392,-596,-11639,-107,-418,176,422,-242
1133,2,2022-09-30T20:43:11.953921,3356357,-5516,391,-598,-11780,-87,-438,176,422,-242
1134,2,2022-09-30T20:43:11.960304,3356362,-5516,391,-598,-11780,-87,-438,176,422,-242
1135,2,2022-09-30T20:43:11.965838,3356369,-5516,391,-598,-11780,-87,-438,176,422,-242
1136,2,2022-09-30T20:43:11.974437,3356377,-5513,390,-595,-11916,-35,-485,176,422,-242
1137,2,2022-09-30T20:43:11.985340,3356389,-5513,390,-595,-11916,-35,-485,176,422,-242
1138,2,2022-09-30T20:43:11.994549,3356396,-5541,386,-595,-12036,24,-450,176,422,-242
1139,2,2022-09-30T20:43:12.003907,3356407,-5541,386,-595,-12036,24,-450,176,422,-242
1140,2,2022-09-30T20:43:12.013306,3356417,-5536,383,-589,-12144,50,-344,176,422,-242
1141,2,2022-09-30T20:43:12.022010,3356423,-5536,383,-589,-12144,50,-344,176,422,-242
1142,2,2022-09-30T20:43:12.031399,3356434,-5525,378,-595,-12224,66,-261,176,422,-242
1143,2,2022-09-30T20:43:12.038353,3356441,-5525,378,-595,-12224,66,-261,176,422,-242
1144,2,2022-09-30T20:43:12.045646,3356447,-5525,378,-595,-12224,66,-261,176,422,-242
1145,2,2022-09-30T20:43:12.053730,3356457,-5523,381,-596,-12295,88,-245,176,422,-242
1146,2,2022-09-30T20:43:12.061350,3356465,-5523,381,-596,-12295,88,-245,176,422,-242
1147,2,2022-09-30T20:43:12.067873,3356471,-5523,381,-596,-12295,88,-245,176,422,-242
1148,2,2022-09-30T20:43:12.076940,3356480,-5526,380,-591,-12356,113,-243,152,428,-250
1149,2,2022-09-30T20:43:12.087410,3356490,-5526,380,-591,-12356,113,-243,152,428,-250
1150,2,2022-09-30T20:43:12.095480,3356497,-5524,382,-598,-12422,167,-221,152,428,-250
1151,2,2022-09-30T20:43:12.106038,3356509,-5524,382,-598,-12422,167,-221,152,428,-250
1152,2,2022-09-30T20:43:12.113090,3356516,-5525,387,-602,-12497,223,-163,152,428,-250
1153,2,2022-09-30T20:43:12.120275,3356522,-5525,387,-602,-12497,223,-163,152,428,-250
1154,2,2022-09-30T20:43:12.129649,3356532,-5535,384,-604,-12601,282,-113,152,428,-250
1155,2,2022-09-30T20:43:12.137300,3356540,-5535,384,-604,-12601,282,-113,152,428,-250
1156,2,2022-09-30T20:43:12.143688,3356547,-5535,384,-604,-12601,282,-113,152,428,-250
1157,2,2022-09-30T20:43:12.153225,3356556,-5546,378,-609,-12709,276,-96,152,428,-250
1158,2,2022-09-30T20:43:12.161981,3356565,-5546,378,-609,-12709,276,-96,152,428,-250
1159,2,2022-09-30T20:43:12.170557,3356572,-5546,378,-609,-12709,276,-96,152,428,-250
1160,2,2022-09-30T20:43:12.180283,3356583,-5551,371,-605,-12790,240,-144,152,428,-250
1161,2,2022-09-30T20:43:12.187871,3356591,-5551,371,-605,-12790,240,-144,152,428,-250
1162,2,2022-09-30T20:43:12.195193,3356598,-5493,382,-607,-12811,208,-220,128,420,-260
1163,2,2022-09-30T20:43:12.203992,3356607,-5493,382,-607,-12811,208,-220,128,420,-260
1164,2,2022-09-30T20:43:12.211335,3356614,-5544,379,-608,-12781,167,-145,128,420,-260
1165,2,2022-09-30T20:43:12.219380,3356620,-5544,379,-608,-12781,167,-145,128,420,-260
1166,2,2022-09-30T20:43:12.229700,3356633,-5542,378,-614,-12763,178,8,128,420,-260
1167,2,2022-09-30T20:43:12.236826,3356640,-5542,378,-614,-12763,178,8,128,420,-260
1168,2,2022-09-30T20:43:12.245444,3356647,-5542,378,-614,-12763,178,8,128,420,-260
1169,2,2022-09-30T20:43:12.255317,3356658,-5522,381,-620,-12725,188,138,128,420,-260
1170,2,2022-09-30T20:43:12.265801,3356668,-5522,381,-620,-12725,188,138,128,420,-260
1171,2,2022-09-30T20:43:12.275144,3356678,-5507,389,-619,-12688,208,135,128,420,-260
1172,2,2022-09-30T20:43:12.284789,3356688,-5507,389,-619,-12688,208,135,128,420,-260
1173,2,2022-09-30T20:43:12.291730,3356695,-5529,394,-622,-12658,232,99,128,420,-260
1174,2,2022-09-30T20:43:12.303169,3356706,-5529,394,-622,-12658,232,99,128,420,-260
1175,2,2022-09-30T20:43:12.312321,3356716,-5544,396,-617,-12610,246,130,109,423,-267
1176,2,2022-09-30T20:43:12.320452,3356723,-5544,396,-617,-12610,246,130,109,423,-267
1177,2,2022-09-30T20:43:12.330830,3356734,-5547,401,-617,-12568,242,179,109,423,-267
1178,2,2022-09-30T20:43:12.338075,3356741,-5547,401,-617,-12568,242,179,109,423,-267
1179,2,2022-09-30T20:43:12.346142,3356748,-5547,401,-617,-12568,242,179,109,423,-267
1180,2,2022-09-30T20:43:12.356463,3356760,-5559,403,-614,-12526,208,183,109,423,-267
1181,2,2022-09-30T20:43:12.363305,3356767,-5559,403,-614,-12526,208,183,109,423,-267
1182,2,2022-09-30T20:43:12.371413,3356774,-5550,405,-612,-12478,122,107,109,423,-267
1183,2,2022-09-30T20:43:12.377396,3356780,-5550,405,-612,-12478,122,107,109,423,-267
1184,2,2022-09-30T20:43:12.384365,3356787,-5550,405,-612,-12478,122,107,109,423,-267
1185,2,2022-09-30T20:43:12.394593,3356795,-5532,410,-616,-12431,60,-39,109,423,-267
1186,2,2022-09-30T20:43:12.401905,3356805,-5532,410,-616,-12431,60,-39,109,423,-267
1187,2,2022-09-30T20:43:12.408509,3356812,-5532,410,-616,-12431,60,-39,109,423,-267
1188,2,2022-09-30T20:43:12.415597,3356819,-5534,410,-614,-12411,88,-195,109,423,-267
1189,2,2022-09-30T20:43:12.421383,3356824,-5534,410,-614,-12411,88,-195,109,423,-267
1190,2,2022-09-30T20:43:12.429085,3356831,-5534,410,-614,-12411,88,-195,109,423,-267
1191,2,2022-09-30T20:43:12.436240,3356839,-5543,399,-601,-12401,136,-293,80,418,-248
1192,2,2022-09-30T20:43:12.447775,3356850,-5543,399,-601,-12401,136,-293,80,418,-248
1193,2,2022-09-30T20:43:12.456009,3356859,-5530,390,-600,-12339,112,-383,80,418,-248
1194,2,2022-09-30T20:43:12.463093,3356866,-5530,390,-600,-12339,112,-383,80,418,-248
1195,2,2022-09-30T20:43:12.470036,3356872,-5530,390,-600,-12339,112,-383,80,418,-248
1196,2,2022-09-30T20:43:12.479562,3356882,-5530,388,-599,-12253,73,-472,80,418,-248
1197,2,2022-09-30T20:43:12.486701,3356891,-5530,388,-599,-12253,73,-472,80,418,-248
1198,2,2022-09-30T20:43:12.494101,3356897,-5530,389,-606,-12190,96,-469,80,418,-248
1199,2,2022-09-30T20:43:12.507408,3356910,-5530,389,-606,-12190,96,-469,80,418,-248
1200,2,2022-09-30T20:43:12.515388,3356918,-5532,390,-604,-12144,147,-361,80,418,-248
1201,2,2022-09-30T20:43:12.527502,3356931,-5532,390,-604,-12144,147,-361,80,418,-248
1202,2,2022-09-30T20:43:12.536252,3356940,-5546,379,-601,-12098,164,-247,80,418,-248
1203,2,2022-09-30T20:43:12.545952,3356948,-5546,379,-601,-12098,164,-247,80,418,-248
1204,2,2022-09-30T20:43:12.555498,3356958,-5548,369,-600,-12030,106,-240,56,420,-242
1205,2,2022-09-30T20:43:12.566025,3356969,-5548,369,-600,-12030,106,-240,56,420,-242
1206,2,2022-09-30T20:43:12.574648,3356978,-5545,362,-594,-11943,39,-316,56,420,-242
1207,2,2022-09-30T20:43:12.584664,3356988,-5545,362,-594,-11943,39,-316,56,420,-242
1208,2,2022-09-30T20:43:12.591728,3356995,-5544,354,-592,-11843,-8,-406,56,420,-242
1209,2,2022-09-30T20:43:12.599783,3357000,-5544,354,-592,-11843,-8,-406,56,420,-242
1210,2,2022-09-30T20:43:12.609363,3357012,-5544,354,-592,-11843,-8,-406,56,420,-242
1211,2,2022-09-30T20:43:12.616789,3357020,-5539,346,-595,-11733,-34,-462,56,420,-242
1212,2,2022-09-30T20:43:12.631465,3357035,-5539,338,-595,-11603,-46,-474,56,420,-242
1213,2,2022-09-30T20:43:12.638551,3357042,-5539,338,-595,-11603,-46,-474,56,420,-242
1214,2,2022-09-30T20:43:12.646134,3357048,-5539,338,-595,-11603,-46,-474,56,420,-242
1215,2,2022-09-30T20:43:12.656281,3357060,-5546,323,-589,-11466,-33,-473,56,420,-242
1216,2,2022-09-30T20:43:12.665531,3357069,-5546,323,-589,-11466,-33,-473,56,420,-242
1217,2,2022-09-30T20:43:12.676178,3357079,-5534,320,-588,-11336,-30,-466,56,420,-242
1218,2,2022-09-30T20:43:12.684959,3357088,-5534,320,-588,-11336,-30,-466,56,420,-242
1219,2,2022-09-30T20:43:12.692082,3357095,-5527,323,-583,-11214,-15,-382,42,430,-218
1220,2,2022-09-30T20:43:12.700962,3357104,-5527,323,-583,-11214,-15,-382,42,430,-218
1221,2,2022-09-30T20:43:12.707954,3357112,-5527,323,-583,-11214,-15,-382,42,430,-218
1222,2,2022-09-30T20:43:12.716491,3357120,-5521,328,-582,-11099,-20,-235,42,430,-218
1223,2,2022-09-30T20:43:12.731288,3357134,-5511,331,-589,-10985,-53,-36,42,430,-218
1224,2,2022-09-30T20:43:12.738623,3357142,-5511,331,-589,-10985,-53,-36,42,430,-218
1225,2,2022-09-30T20:43:12.748613,3357152,-5511,331,-589,-10985,-53,-36,42,430,-218
1226,2,2022-09-30T20:43:12.755693,3357159,-5517,332,-589,-10866,-88,202,42,430,-218
1227,2,2022-09-30T20:43:12.761214,3357165,-5517,332,-589,-10866,-88,202,42,430,-218
1228,2,2022-09-30T20:43:12.769887,3357171,-5517,332,-589,-10866,-88,202,42,430,-218
1229,2,2022-09-30T20:43:12.780344,3357184,-5515,342,-580,-10718,-144,494,42,430,-218
1230,2,2022-09-30T20:43:12.787722,3357191,-5515,342,-580,-10718,-144,494,42,430,-218
1231,2,2022-09-30T20:43:12.795617,3357198,-5506,355,-578,-10535,-191,817,42,430,-218
1232,2,2022-09-30T20:43:12.805548,3357209,-5506,355,-578,-10535,-191,817,42,430,-218
1233,2,2022-09-30T20:43:12.811293,3357214,-5499,378,-568,-10343,-212,1140,29,417,-209
1234,2,2022-09-30T20:43:12.816996,3357220,-5499,378,-568,-10343,-212,1140,29,417,-209
1235,2,2022-09-30T20:43:12.828063,3357232,-5499,378,-568,-10343,-212,1140,29,417,-209
1236,2,2022-09-30T20:43:12.835216,3357239,-5504,403,-569,-10141,-202,1464,29,417,-209
1237,2,2022-09-30T20:43:12.842523,3357246,-5504,403,-569,-10141,-202,1464,29,417,-209
1238,2,2022-09-30T20:43:12.849302,3357252,-5504,403,-569,-10141,-202,1464,29,417,-209
1239,2,2022-09-30T20:43:12.854430,3357257,-5517,444,-562,-9982,-186,1790,29,417,-209
1240,2,2022-09-30T20:43:12.860075,3357263,-5517,444,-562,-9982,-186,1790,29,417,-209
1241,2,2022-09-30T20:43:12.865551,3357268,-5517,444,-562,-9982,-186,1790,29,417,-209
1242,2,2022-09-30T20:43:12.877580,3357278,-5522,479,-564,-9841,-230,2078,29,417,-209
1243,2,2022-09-30T20:43:12.888698,3357291,-5522,479,-564,-9841,-230,2078,29,417,-209
1244,2,2022-09-30T20:43:12.897565,3357301,-5535,510,-564,-9747,-293,2239,29,417,-209
1245,2,2022-09-30T20:43:12.907956,3357310,-5535,510,-564,-9747,-293,2239,29,417,-209
1246,2,2022-09-30T20:43:12.915059,3357319,-5549,537,-555,-9693,-353,2281,29,417,-209
1247,2,2022-09-30T20:43:12.925106,3357328,-5549,537,-555,-9693,-353,2281,29,417,-209
1248,2,2022-09-30T20:43:12.933824,3357336,-5555,551,-548,-9628,-429,2260,4,418,-194
1249,2,2022-09-30T20:43:12.943981,3357347,-5555,551,-548,-9628,-429,2260,4,418,-194
1250,2,2022-09-30T20:43:12.956132,3357360,-5562,564,-541,-9534,-532,2181,4,418,-194
1251,2,2022-09-30T20:43:12.964397,3357367,-5562,564,-541,-9534,-532,2181,4,418,-194
1252,2,2022-09-30T20:43:12.973842,3357376,-5560,566,-527,-9408,-669,2042,4,418,-194
1253,2,2022-09-30T20:43:12.979996,3357383,-5560,566,-527,-9408,-669,2042,4,418,-194
1254,2,2022-09-30T20:43:12.987801,3357391,-5560,566,-527,-9408,-669,2042,4,418,-194
1255,2,2022-09-30T20:43:12.996236,3357399,-5555,566,-525,-9252,-780,1816,4,418,-194
1256,2,2022-09-30T20:43:13.005625,3357409,-5555,566,-525,-9252,-780,1816,4,418,-194
1257,2,2022-09-30T20:43:13.012973,3357416,-5555,566,-525,-9252,-780,1816,4,418,-194
1258,2,2022-09-30T20:43:13.018931,3357422,-5555,566,-525,-9252,-780,1816,4,418,-194
1259,2,2022-09-30T20:43:13.031573,3357433,-5555,566,-525,-9252,-780,1816,4,418,-194
1260,2,2022-09-30T20:43:13.038871,3357442,-5556,548,-506,-8859,-910,1310,4,418,-194
1261,2,2022-09-30T20:43:13.045866,3357449,-5556,548,-506,-8859,-910,1310,4,418,-194
1262,2,2022-09-30T20:43:13.054558,3357458,-5558,544,-489,-8577,-964,1114,-3,419,-173
1263,2,2022-09-30T20:43:13.066447,3357468,-5558,544,-489,-8577,-964,1114,-3,419,-173
1264,2,2022-09-30T20:43:13.078235,3357481,-5540,543,-475,-8259,-1013,952,-3,419,-173
1265,2,2022-09-30T20:43:13.088730,3357492,-5540,543,-475,-8259,-1013,952,-3,419,-173
1266,2,2022-09-30T20:43:13.100501,3357503,-5527,539,-459,-7925,-1005,758,-3,419,-173
1267,2,2022-09-30T20:43:13.109779,3357513,-5527,539,-459,-7925,-1005,758,-3,419,-173
1268,2,2022-09-30T20:43:13.116795,3357520,-5511,525,-457,-7586,-896,559,-3,419,-173
1269,2,2022-09-30T20:43:13.128481,3357532,-5511,525,-457,-7586,-896,559,-3,419,-173
1270,2,2022-09-30T20:43:13.135770,3357539,-5499,519,-446,-7236,-711,385,-3,419,-173
1271,2,2022-09-30T20:43:13.145725,3357548,-5499,519,-446,-7236,-711,385,-3,419,-173
1272,2,2022-09-30T20:43:13.154516,3357557,-5497,505,-441,-6870,-541,259,-3,419,-173
1273,2,2022-09-30T20:43:13.164086,3357568,-5497,505,-441,-6870,-541,259,-3,419,-173
1274,2,2022-09-30T20:43:13.171995,3357575,-5496,502,-429,-6474,-357,166,-14,410,-154
1275,2,2022-09-30T20:43:13.180440,3357584,-5496,502,-429,-6474,-357,166,-14,410,-154
1276,2,2022-09-30T20:43:13.186387,3357589,-5496,502,-429,-6474,-357,166,-14,410,-154
1277,2,2022-09-30T20:43:13.194160,3357597,-5493,501,-420,-6066,-169,135,-14,410,-154
1278,2,2022-09-30T20:43:13.203146,3357606,-5493,501,-420,-6066,-169,135,-14,410,-154
1279,2,2022-09-30T20:43:13.208368,3357612,-5493,501,-420,-6066,-169,135,-14,410,-154
1280,2,2022-09-30T20:43:13.215355,3357619,-5492,504,-428,-5693,-18,182,-14,410,-154
1281,2,2022-09-30T20:43:13.230617,3357634,-5498,522,-430,-5376,106,311,-14,410,-154
1282,2,2022-09-30T20:43:13.242997,3357645,-5498,522,-430,-5376,106,311,-14,410,-154
1283,2,2022-09-30T20:43:13.250243,3357654,-5498,522,-430,-5376,106,311,-14,410,-154
1284,2,2022-09-30T20:43:13.257532,3357661,-5501,537,-431,-5115,168,472,-14,410,-154
1285,2,2022-09-30T20:43:13.266650,3357670,-5501,537,-431,-5115,168,472,-14,410,-154
1286,2,2022-09-30T20:43:13.277867,3357681,-5495,550,-433,-4924,215,607,-14,410,-154
1287,2,2022-09-30T20:43:13.288843,3357692,-5495,550,-433,-4924,215,607,-14,410,-154
1288,2,2022-09-30T20:43:13.296439,3357699,-5492,564,-448,-4792,283,707,-14,410,-154
1289,2,2022-09-30T20:43:13.307591,3357711,-5492,564,-448,-4792,283,707,-14,410,-154
1290,2,2022-09-30T20:43:13.314278,3357718,-5513,567,-434,-4646,360,827,-11,415,-133
1291,2,2022-09-30T20:43:13.322021,3357724,-5513,567,-434,-4646,360,827,-11,415,-133
1292,2,2022-09-30T20:43:13.329863,3357733,-5513,567,-434,-4646,360,827,-11,415,-133
1293,2,2022-09-30T20:43:13.337283,3357741,-5505,572,-442,-4490,362,851,-11,415,-133
1294,2,2022-09-30T20:43:13.342873,3357746,-5505,572,-442,-4490,362,851,-11,415,-133
1295,2,2022-09-30T20:43:13.351462,3357752,-5505,572,-442,-4490,362,851,-11,415,-133
1296,2,2022-09-30T20:43:13.359982,3357763,-5500,581,-454,-4282,367,875,-11,415,-133
1297,2,2022-09-30T20:43:13.365417,3357769,-5500,581,-454,-4282,367,875,-11,415,-133
1298,2,2022-09-30T20:43:13.373836,3357776,-5501,595,-461,-4053,435,897,-11,415,-133
1299,2,2022-09-30T20:43:13.384237,3357788,-5501,595,-461,-4053,435,897,-11,415,-133
1300,2,2022-09-30T20:43:13.392885,3357796,-5503,598,-467,-3789,535,894,-11,415,-133
1301,2,2022-09-30T20:43:13.404835,3357808,-5503,598,-467,-3789,535,894,-11,415,-133
1302,2,2022-09-30T20:43:13.413605,3357817,-5512,606,-472,-3471,610,862,-11,415,-133
1303,2,2022-09-30T20:43:13.419914,3357822,-5512,606,-472,-3471,610,862,-11,415,-133
1304,2,2022-09-30T20:43:13.427596,3357831,-5512,606,-472,-3471,610,862,-11,415,-133
1305,2,2022-09-30T20:43:13.435031,3357838,-5525,608,-474,-3122,598,771,-19,409,-129
1306,2,2022-09-30T20:43:13.441844,3357845,-5525,608,-474,-3122,598,771,-19,409,-129
1307,2,2022-09-30T20:43:13.448567,3357851,-5525,608,-474,-3122,598,771,-19,409,-129
1308,2,2022-09-30T20:43:13.457466,3357860,-5530,614,-470,-2761,543,644,-19,409,-129
1309,2,2022-09-30T20:43:13.470698,3357874,-5530,614,-470,-2761,543,644,-19,409,-129
1310,2,2022-09-30T20:43:13.479588,3357883,-5535,616,-475,-2390,451,519,-19,409,-129
1311,2,2022-09-30T20:43:13.485895,3357889,-5535,616,-475,-2390,451,519,-19,409,-129
1312,2,2022-09-30T20:43:13.492645,3357895,-5530,619,-483,-2014,331,424,-19,409,-129
1313,2,2022-09-30T20:43:13.501232,3357904,-5530,619,-483,-2014,331,424,-19,409,-129
1314,2,2022-09-30T20:43:13.510627,3357914,-5530,619,-483,-2014,331,424,-19,409,-129
1315,2,2022-09-30T20:43:13.517849,3357921,-5532,617,-479,-1625,219,350,-19,409,-129
1316,2,2022-09-30T20:43:13.527205,3357931,-5532,617,-479,-1625,219,350,-19,409,-129
1317,2,2022-09-30T20:43:13.534633,3357938,-5527,610,-477,-1211,108,286,-19,409,-129
1318,2,2022-09-30T20:43:13.545949,3357949,-5527,610,-477,-1211,108,286,-19,409,-129
1319,2,2022-09-30T20:43:13.553679,3357957,-5523,609,-479,-798,14,212,-15,409,-127
1320,2,2022-09-30T20:43:13.559646,3357963,-5523,609,-479,-798,14,212,-15,409,-127
1321,2,2022-09-30T20:43:13.566729,3357970,-5523,609,-479,-798,14,212,-15,409,-127
1322,2,2022-09-30T20:43:13.576275,3357979,-5521,611,-475,-369,-74,136,-15,409,-127
1323,2,2022-09-30T20:43:13.585505,3357988,-5521,611,-475,-369,-74,136,-15,409,-127
1324,2,2022-09-30T20:43:13.592125,3357996,-5520,611,-474,31,-144,64,-15,409,-127
1325,2,2022-09-30T20:43:13.599953,3358003,-5520,611,-474,31,-144,64,-15,409,-127
1326,2,2022-09-30T20:43:13.608689,3358012,-5520,611,-474,31,-144,64,-15,409,-127
1327,2,2022-09-30T20:43:13.616086,3358019,-5516,615,-477,403,-209,7,-15,409,-127
1328,2,2022-09-30T20:43:13.627772,3358031,-5516,615,-477,403,-209,7,-15,409,-127
1329,2,2022-09-30T20:43:13.635183,3358039,-5513,617,-475,744,-256,-48,-15,409,-127
1330,2,2022-09-30T20:43:13.645281,3358048,-5513,617,-475,744,-256,-48,-15,409,-127
1331,2,2022-09-30T20:43:13.654918,3358058,-5513,622,-479,1060,-310,-83,-15,409,-127
1332,2,2022-09-30T20:43:13.666661,3358069,-5513,622,-479,1060,-310,-83,-15,409,-127
1333,2,2022-09-30T20:43:13.677129,3358081,-5509,620,-475,1371,-348,-82,-19,409,-137
1334,2,2022-09-30T20:43:13.687903,3358092,-5509,620,-475,1371,-348,-82,-19,409,-137
1335,2,2022-09-30T20:43:13.696104,3358098,-5514,619,-477,1657,-381,-88,-19,409,-137
1336,2,2022-09-30T20:43:13.707912,3358111,-5514,619,-477,1657,-381,-88,-19,409,-137
1337,2,2022-09-30T20:43:13.715289,3358118,-5514,620,-480,1944,-390,-112,-19,409,-137
1338,2,2022-09-30T20:43:13.726503,3358130,-5514,620,-480,1944,-390,-112,-19,409,-137
1339,2,2022-09-30T20:43:13.734496,3358138,-5516,618,-479,2245,-411,-164,-19,409,-137
1340,2,2022-09-30T20:43:13.740154,3358143,-5516,618,-479,2245,-411,-164,-19,409,-137
1341,2,2022-09-30T20:43:13.746301,3358149,-5516,618,-479,2245,-411,-164,-19,409,-137
1342,2,2022-09-30T20:43:13.756061,3358159,-5516,615,-480,2552,-432,-204,-19,409,-137
1343,2,2022-09-30T20:43:13.763346,3358167,-5516,615,-480,2552,-432,-204,-19,409,-137
1344,2,2022-09-30T20:43:13.769603,3358173,-5516,615,-480,2552,-432,-204,-19,409,-137
1345,2,2022-09-30T20:43:13.782024,3358185,-5518,612,-486,2883,-475,-238,-19,409,-137
1346,2,2022-09-30T20:43:13.791720,3358195,-5519,609,-485,3224,-499,-267,-11,397,-139
1347,2,2022-09-30T20:43:13.804816,3358209,-5519,609,-485,3224,-499,-267,-11,397,-139
1348,2,2022-09-30T20:43:13.812773,3358217,-5519,607,-486,3585,-525,-315,-11,397,-139
1349,2,2022-09-30T20:43:13.820564,3358224,-5519,607,-486,3585,-525,-315,-11,397,-139
1350,2,2022-09-30T20:43:13.827848,3358231,-5519,607,-486,3585,-525,-315,-11,397,-139
1351,2,2022-09-30T20:43:13.834709,3358238,-5527,605,-490,3951,-570,-369,-11,397,-139
1352,2,2022-09-30T20:43:13.841145,3358244,-5527,605,-490,3951,-570,-369,-11,397,-139
1353,2,2022-09-30T20:43:13.847349,3358251,-5527,605,-490,3951,-570,-369,-11,397,-139
1354,2,2022-09-30T20:43:13.855870,3358259,-5525,602,-490,4300,-628,-440,-11,397,-139
1355,2,2022-09-30T20:43:13.863960,3358267,-5525,602,-490,4300,-628,-440,-11,397,-139
1356,2,2022-09-30T20:43:13.870695,3358273,-5525,602,-490,4300,-628,-440,-11,397,-139
1357,2,2022-09-30T20:43:13.879261,3358282,-5523,605,-497,4634,-698,-504,-11,397,-139
1358,2,2022-09-30T20:43:13.885597,3358287,-5523,605,-497,4634,-698,-504,-11,397,-139
1359,2,2022-09-30T20:43:13.891846,3358296,-5524,598,-499,4930,-767,-551,-11,397,-139
1360,2,2022-09-30T20:43:13.902156,3358306,-5524,598,-499,4930,-767,-551,-11,397,-139
1361,2,2022-09-30T20:43:13.907425,3358311,-5524,598,-499,4930,-767,-551,-11,397,-139
1362,2,2022-09-30T20:43:13.914286,3358318,-5531,592,-494,5193,-840,-575,-11,397,-139
1363,2,2022-09-30T20:43:13.922014,3358324,-5531,592,-494,5193,-840,-575,-11,397,-139
1364,2,2022-09-30T20:43:13.928036,3358331,-5531,592,-494,5193,-840,-575,-11,397,-139
1365,2,2022-09-30T20:43:13.935586,3358338,-5535,586,-486,5470,-946,-607,-19,399,-145
1366,2,2022-09-30T20:43:13.945676,3358349,-5535,586,-486,5470,-946,-607,-19,399,-145
1367,2,2022-09-30T20:43:13.952922,3358356,-5523,579,-493,5792,-1070,-600,-19,399,-145
1368,2,2022-09-30T20:43:13.958689,3358362,-5523,579,-493,5792,-1070,-600,-19,399,-145
1369,2,2022-09-30T20:43:13.966827,3358370,-5523,579,-493,5792,-1070,-600,-19,399,-145
1370,2,2022-09-30T20:43:13.977154,3358381,-5508,580,-495,6137,-1156,-566,-19,399,-145
1371,2,2022-09-30T20:43:13.988517,3358391,-5508,580,-495,6137,-1156,-566,-19,399,-145
1372,2,2022-09-30T20:43:13.997170,3358400,-5503,581,-501,6462,-1164,-516,-19,399,-145
1373,2,2022-09-30T20:43:14.004452,3358407,-5503,581,-501,6462,-1164,-516,-19,399,-145
1374,2,2022-09-30T20:43:14.011148,3358414,-5503,581,-501,6462,-1164,-516,-19,399,-145
1375,2,2022-09-30T20:43:14.018414,3358422,-5513,583,-495,6793,-1138,-450,-19,399,-145
1376,2,2022-09-30T20:43:14.030587,3358434,-5513,583,-495,6793,-1138,-450,-19,399,-145
1377,2,2022-09-30T20:43:14.038228,3358441,-5519,590,-493,7095,-1155,-404,-19,399,-145
1378,2,2022-09-30T20:43:14.048667,3358450,-5519,590,-493,7095,-1155,-404,-19,399,-145
1379,2,2022-09-30T20:43:14.057684,3358460,-5516,601,-488,7339,-1190,-419,-12,414,-156
1380,2,2022-09-30T20:43:14.064834,3358469,-5516,601,-488,7339,-1190,-419,-12,414,-156
1381,2,2022-09-30T20:43:14.075813,3358479,-5518,596,-491,7562,-1223,-442,-12,414,-156
1382,2,2022-09-30T20:43:14.087285,3358491,-5518,596,-491,7562,-1223,-442,-12,414,-156
1383,2,2022-09-30T20:43:14.094470,3358497,-5520,595,-487,7750,-1252,-496,-12,414,-156
1384,2,2022-09-30T20:43:14.109967,3358513,-5520,595,-487,7750,-1252,-496,-12,414,-156
1385,2,2022-09-30T20:43:14.117491,3358521,-5527,594,-482,7954,-1274,-545,-12,414,-156
1386,2,2022-09-30T20:43:14.136498,3358540,-5523,591,-486,8172,-1312,-601,-12,414,-156
1387,2,2022-09-30T20:43:14.147302,3358548,-5523,591,-486,8172,-1312,-601,-12,414,-156
1388,2,2022-09-30T20:43:14.156462,3358560,-5522,586,-487,8415,-1363,-646,-12,414,-156
1389,2,2022-09-30T20:43:14.164054,3358567,-5522,586,-487,8415,-1363,-646,-12,414,-156
1390,2,2022-09-30T20:43:14.172706,3358573,-5522,586,-487,8415,-1363,-646,-12,414,-156
1391,2,2022-09-30T20:43:14.181054,3358584,-5516,587,-484,8678,-1401,-684,-4,408,-176
1392,2,2022-09-30T20:43:14.189170,3358593,-5516,587,-484,8678,-1401,-684,-4,408,-176
1393,2,2022-09-30T20:43:14.197007,3358600,-5520,587,-484,8935,-1397,-706,-4,408,-176
1394,2,2022-09-30T20:43:14.206493,3358610,-5520,587,-484,8935,-1397,-706,-4,408,-176
1395,2,2022-09-30T20:43:14.214938,3358618,-5524,586,-480,9186,-1399,-704,-4,408,-176
1396,2,2022-09-30T20:43:14.227947,3358631,-5524,586,-480,9186,-1399,-704,-4,408,-176
1397,2,2022-09-30T20:43:14.233256,3358637,-5528,599,-478,9462,-1484,-658,-4,408,-176
1398,2,2022-09-30T20:43:14.242016,3358646,-5528,599,-478,9462,-1484,-658,-4,408,-176
1399,2,2022-09-30T20:43:14.254193,3358657,-5530,602,-480,9752,-1554,-573,-4,408,-176
1400,2,2022-09-30T20:43:14.260384,3358663,-5530,602,-480,9752,-1554,-573,-4,408,-176
1401,2,2022-09-30T20:43:14.267508,3358670,-5530,602,-480,9752,-1554,-573,-4,408,-176
1402,2,2022-09-30T20:43:14.277928,3358682,-5519,601,-478,10045,-1590,-524,-4,408,-176
1403,2,2022-09-30T20:43:14.288729,3358692,-5519,601,-478,10045,-1590,-524,-4,408,-176
1404,2,2022-09-30T20:43:14.297666,3358699,-5526,605,-476,10344,-1629,-570,4,412,-192
1405,2,2022-09-30T20:43:14.308400,3358711,-5526,605,-476,10344,-1629,-570,4,412,-192
1406,2,2022-09-30T20:43:14.315638,3358718,-5533,609,-470,10634,-1697,-724,4,412,-192
1407,2,2022-09-30T20:43:14.324582,3358725,-5533,609,-470,10634,-1697,-724,4,412,-192
1408,2,2022-09-30T20:43:14.330783,3358734,-5533,609,-470,10634,-1697,-724,4,412,-192
1409,2,2022-09-30T20:43:14.338153,3358742,-5529,609,-471,10878,-1767,-950,4,412,-192
1410,2,2022-09-30T20:43:14.347175,3358750,-5529,609,-471,10878,-1767,-950,4,412,-192
1411,2,2022-09-30T20:43:14.356353,3358759,-5525,603,-463,11061,-1825,-1201,4,412,-192
1412,2,2022-09-30T20:43:14.365447,3358769,-5525,603,-463,11061,-1825,-1201,4,412,-192
1413,2,2022-09-30T20:43:14.372175,3358775,-5514,595,-457,11180,-1870,-1414,4,412,-192
1414,2,2022-09-30T20:43:14.382925,3358786,-5514,595,-457,11180,-1870,-1414,4,412,-192
1415,2,2022-09-30T20:43:14.391005,3358794,-5514,595,-457,11180,-1870,-1414,4,412,-192
1416,2,2022-09-30T20:43:14.400631,3358803,-5513,583,-452,11273,-1867,-1589,4,412,-192
1417,2,2022-09-30T20:43:14.407866,3358811,-5513,583,-452,11273,-1867,-1589,4,412,-192
1418,2,2022-09-30T20:43:14.413203,3358817,-5508,575,-446,11350,-1852,-1659,16,422,-210
1419,2,2022-09-30T20:43:14.419650,3358822,-5508,575,-446,11350,-1852,-1659,16,422,-210
1420,2,2022-09-30T20:43:14.428384,3358832,-5508,575,-446,11350,-1852,-1659,16,422,-210
1421,2,2022-09-30T20:43:14.435454,3358838,-5511,562,-432,11398,-1800,-1666,16,422,-210
1422,2,2022-09-30T20:43:14.442363,3358845,-5511,562,-432,11398,-1800,-1666,16,422,-210
1423,2,2022-09-30T20:43:14.449647,3358853,-5511,562,-432,11398,-1800,-1666,16,422,-210
1424,2,2022-09-30T20:43:14.456715,3358860,-5506,545,-436,11425,-1734,-1666,16,422,-210
1425,2,2022-09-30T20:43:14.464144,3358867,-5506,545,-436,11425,-1734,-1666,16,422,-210
1426,2,2022-09-30T20:43:14.470945,3358874,-5506,545,-436,11425,-1734,-1666,16,422,-210
1427,2,2022-09-30T20:43:14.480452,3358884,-5503,537,-428,11454,-1641,-1654,16,422,-210
1428,2,2022-09-30T20:43:14.487591,3358891,-5503,537,-428,11454,-1641,-1654,16,422,-210
1429,2,2022-09-30T20:43:14.495660,3358898,-5499,519,-430,11488,-1541,-1669,16,422,-210
1430,2,2022-09-30T20:43:14.506316,3358910,-5499,519,-430,11488,-1541,-1669,16,422,-210
1431,2,2022-09-30T20:43:14.514154,3358917,-5506,511,-430,11539,-1439,-1659,16,422,-210
1432,2,2022-09-30T20:43:14.521997,3358923,-5506,511,-430,11539,-1439,-1659,16,422,-210
1433,2,2022-09-30T20:43:14.531002,3358935,-5506,511,-430,11539,-1439,-1659,16,422,-210
1434,2,2022-09-30T20:43:14.538120,3358942,-5507,506,-424,11581,-1334,-1633,16,422,-210
1435,2,2022-09-30T20:43:14.548197,3358948,-5507,506,-424,11581,-1334,-1633,16,422,-210
1436,2,2022-09-30T20:43:14.554805,3358958,-5514,500,-427,11618,-1258,-1568,40,424,-222
1437,2,2022-09-30T20:43:14.564872,3358968,-5514,500,-427,11618,-1258,-1568,40,424,-222
1438,2,2022-09-30T20:43:14.574218,3358978,-5519,497,-434,11659,-1172,-1473,40,424,-222
1439,2,2022-09-30T20:43:14.581520,3358985,-5519,497,-434,11659,-1172,-1473,40,424,-222
1440,2,2022-09-30T20:43:14.588562,3358992,-5519,497,-434,11659,-1172,-1473,40,424,-222
1441,2,2022-09-30T20:43:14.596205,3358999,-5519,492,-433,11702,-1095,-1370,40,424,-222
1442,2,2022-09-30T20:43:14.607362,3359010,-5519,492,-433,11702,-1095,-1370,40,424,-222
1443,2,2022-09-30T20:43:14.620152,3359023,-5525,482,-436,11754,-1009,-1324,40,424,-222
1444,2,2022-09-30T20:43:14.627465,3359031,-5525,482,-436,11754,-1009,-1324,40,424,-222
1445,2,2022-09-30T20:43:14.634712,3359038,-5529,477,-444,11810,-935,-1327,40,424,-222
1446,2,2022-09-30T20:43:14.641996,3359045,-5529,477,-444,11810,-935,-1327,40,424,-222
1447,2,2022-09-30T20:43:14.649024,3359052,-5529,477,-444,11810,-935,-1327,40,424,-222
