,imu,server_time,arduino_time,ax,ay,az,gx,gy,gz,mx,my,mz
0,2,2022-09-15T20:55:02.906763,1092945,-5520,327,-475,-9,-288,408,88,408,-182
1,2,2022-09-15T20:55:02.920042,1092960,-5529,337,-475,-92,-152,473,88,408,-182
2,2,2022-09-15T20:55:02.928837,1092969,-5529,337,-475,-92,-152,473,88,408,-182
3,2,2022-09-15T20:55:02.935182,1092975,-5529,337,-475,-92,-152,473,88,408,-182
4,2,2022-09-15T20:55:02.941394,1092981,-5541,341,-474,-159,-115,513,88,408,-182
5,2,2022-09-15T20:55:02.948220,1092987,-5541,341,-474,-159,-115,513,88,408,-182
6,2,2022-09-15T20:55:02.956050,1092997,-5541,341,-474,-159,-115,513,88,408,-182
7,2,2022-09-15T20:55:02.961778,1093002,-5538,339,-480,-175,-98,420,88,408,-182
8,2,2022-09-15T20:55:02.969277,1093009,-5538,339,-480,-175,-98,420,88,408,-182
9,2,2022-09-15T20:55:02.977615,1093018,-5538,339,-480,-175,-98,420,88,408,-182
10,2,2022-09-15T20:55:02.983616,1093023,-5546,339,-484,-195,-9,254,88,408,-182
11,2,2022-09-15T20:55:02.990898,1093031,-5546,339,-484,-195,-9,254,88,408,-182
12,2,2022-09-15T20:55:02.998738,1093039,-5546,339,-484,-195,-9,254,88,408,-182
13,2,2022-09-15T20:55:03.004759,1093045,-5547,340,-483,-249,-6,-66,88,408,-182
14,2,2022-09-15T20:55:03.041725,1093052,-5547,340,-483,-249,-6,-66,88,408,-182
15,2,2022-09-15T20:55:03.049400,1093089,-5540,342,-485,-328,-2,-371,92,400,-180
16,2,2022-09-15T20:55:03.059218,1093099,-5540,342,-485,-328,-2,-371,92,400,-180
17,2,2022-09-15T20:55:03.066272,1093105,-5535,323,-499,-470,4,-664,92,400,-180
18,2,2022-09-15T20:55:03.074606,1093113,-5535,323,-499,-470,4,-664,92,400,-180
19,2,2022-09-15T20:55:03.081392,1093122,-5546,305,-501,-521,1,-726,92,400,-180
20,2,2022-09-15T20:55:03.089021,1093129,-5546,305,-501,-521,1,-726,92,400,-180
21,2,2022-09-15T20:55:03.097226,1093137,-5546,305,-501,-521,1,-726,92,400,-180
22,2,2022-09-15T20:55:03.103682,1093144,-5543,290,-500,-530,-106,-825,92,400,-180
23,2,2022-09-15T20:55:03.112393,1093151,-5543,290,-500,-530,-106,-825,92,400,-180
24,2,2022-09-15T20:55:03.120755,1093160,-5532,276,-505,-452,-177,-905,92,400,-180
25,2,2022-09-15T20:55:03.128026,1093168,-5532,276,-505,-452,-177,-905,92,400,-180
26,2,2022-09-15T20:55:03.136694,1093177,-5532,276,-505,-452,-177,-905,92,400,-180
27,2,2022-09-15T20:55:03.142684,1093183,-5526,278,-495,-316,-204,-888,86,396,-176
28,2,2022-09-15T20:55:03.149443,1093189,-5526,278,-495,-316,-204,-888,86,396,-176
29,2,2022-09-15T20:55:03.157785,1093197,-5526,278,-495,-316,-204,-888,86,396,-176
30,2,2022-09-15T20:55:03.163434,1093203,-5521,280,-490,-214,-237,-778,86,396,-176
31,2,2022-09-15T20:55:03.170646,1093211,-5521,280,-490,-214,-237,-778,86,396,-176
32,2,2022-09-15T20:55:03.178083,1093218,-5521,280,-490,-214,-237,-778,86,396,-176
33,2,2022-09-15T20:55:03.184144,1093224,-5519,283,-497,-137,-259,-606,86,396,-176
34,2,2022-09-15T20:55:03.249810,1093288,-5520,292,-487,-189,-283,-301,86,396,-176
35,2,2022-09-15T20:55:03.263465,1093304,-5521,286,-485,-274,-269,-288,102,398,-168
36,2,2022-09-15T20:55:03.273615,1093313,-5521,286,-485,-274,-269,-288,102,398,-168
37,2,2022-09-15T20:55:03.283189,1093323,-5521,286,-485,-274,-269,-288,102,398,-168
38,2,2022-09-15T20:55:03.292174,1093332,-5521,286,-485,-274,-269,-288,102,398,-168
39,2,2022-09-15T20:55:03.299355,1093339,-5521,286,-485,-274,-269,-288,102,398,-168
40,2,2022-09-15T20:55:03.308926,1093349,-5508,270,-487,-363,-227,-266,102,398,-168
41,2,2022-09-15T20:55:03.317795,1093357,-5508,270,-487,-363,-227,-266,102,398,-168
42,2,2022-09-15T20:55:03.325730,1093365,-5509,274,-480,-365,-132,-241,102,398,-168
43,2,2022-09-15T20:55:03.334288,1093374,-5509,274,-480,-365,-132,-241,102,398,-168
44,2,2022-09-15T20:55:03.342707,1093383,-5524,285,-482,-396,-132,-131,102,398,-168
45,2,2022-09-15T20:55:03.349947,1093390,-5524,285,-482,-396,-132,-131,102,398,-168
46,2,2022-09-15T20:55:03.356150,1093396,-5524,285,-482,-396,-132,-131,102,398,-168
47,2,2022-09-15T20:55:03.362652,1093403,-5504,276,-486,-405,-237,35,102,398,-168
48,2,2022-09-15T20:55:03.370393,1093409,-5504,276,-486,-405,-237,35,102,398,-168
49,2,2022-09-15T20:55:03.379350,1093420,-5504,276,-486,-405,-237,35,102,398,-168
50,2,2022-09-15T20:55:03.387891,1093426,-5491,279,-490,-274,-152,380,102,398,-168
51,2,2022-09-15T20:55:03.396822,1093437,-5491,279,-490,-274,-152,380,102,398,-168
52,2,2022-09-15T20:55:03.403595,1093443,-5522,283,-486,-93,47,852,94,404,-176
53,2,2022-09-15T20:55:03.412285,1093452,-5522,283,-486,-93,47,852,94,404,-176
54,2,2022-09-15T20:55:03.421465,1093460,-5553,270,-480,-19,59,901,94,404,-176
55,2,2022-09-15T20:55:03.431467,1093471,-5553,270,-480,-19,59,901,94,404,-176
56,2,2022-09-15T20:55:03.439652,1093480,-5530,297,-494,25,70,543,94,404,-176
57,2,2022-09-15T20:55:03.447282,1093486,-5530,297,-494,25,70,543,94,404,-176
58,2,2022-09-15T20:55:03.455708,1093496,-5530,297,-494,25,70,543,94,404,-176
59,2,2022-09-15T20:55:03.462021,1093502,-5553,329,-497,29,167,352,94,404,-176
60,2,2022-09-15T20:55:03.468084,1093509,-5553,329,-497,29,167,352,94,404,-176
61,2,2022-09-15T20:55:03.474286,1093515,-5553,329,-497,29,167,352,94,404,-176
62,2,2022-09-15T20:55:03.481275,1093521,-5543,330,-491,-39,176,107,94,404,-176
63,2,2022-09-15T20:55:03.486819,1093528,-5543,330,-491,-39,176,107,94,404,-176
64,2,2022-09-15T20:55:03.494844,1093535,-5543,330,-491,-39,176,107,94,404,-176
65,2,2022-09-15T20:55:03.502291,1093541,-5562,314,-507,-97,173,-40,94,404,-176
66,2,2022-09-15T20:55:03.508684,1093549,-5562,314,-507,-97,173,-40,94,404,-176
67,2,2022-09-15T20:55:03.514760,1093555,-5562,314,-507,-97,173,-40,94,404,-176
68,2,2022-09-15T20:55:03.523635,1093562,-5555,312,-509,-149,120,-334,86,396,-174
69,2,2022-09-15T20:55:03.530398,1093570,-5555,312,-509,-149,120,-334,86,396,-174
70,2,2022-09-15T20:55:03.536740,1093576,-5555,312,-509,-149,120,-334,86,396,-174
71,2,2022-09-15T20:55:03.542757,1093583,-5541,303,-509,-214,160,-624,86,396,-174
72,2,2022-09-15T20:55:03.549494,1093590,-5541,303,-509,-214,160,-624,86,396,-174
73,2,2022-09-15T20:55:03.557135,1093598,-5541,303,-509,-214,160,-624,86,396,-174
74,2,2022-09-15T20:55:03.563226,1093604,-5525,305,-520,-308,181,-820,86,396,-174
75,2,2022-09-15T20:55:03.568545,1093609,-5525,305,-520,-308,181,-820,86,396,-174
76,2,2022-09-15T20:55:03.574815,1093615,-5525,305,-520,-308,181,-820,86,396,-174
77,2,2022-09-15T20:55:03.580362,1093621,-5526,290,-529,-423,132,-974,86,396,-174
78,2,2022-09-15T20:55:03.588860,1093629,-5526,290,-529,-423,132,-974,86,396,-174
79,2,2022-09-15T20:55:03.594678,1093636,-5526,290,-529,-423,132,-974,86,396,-174
80,2,2022-09-15T20:55:03.600881,1093642,-5516,285,-537,-507,137,-973,86,396,-174
81,2,2022-09-15T20:55:03.605844,1093647,-5516,285,-537,-507,137,-973,86,396,-174
82,2,2022-09-15T20:55:03.611855,1093652,-5516,285,-537,-507,137,-973,86,396,-174
83,2,2022-09-15T20:55:03.618132,1093658,-5516,285,-537,-507,137,-973,86,396,-174
84,2,2022-09-15T20:55:03.623706,1093664,-5504,288,-540,-510,100,-603,86,396,-174
85,2,2022-09-15T20:55:03.630141,1093670,-5504,288,-540,-510,100,-603,86,396,-174
86,2,2022-09-15T20:55:03.638129,1093679,-5504,288,-540,-510,100,-603,86,396,-174
87,2,2022-09-15T20:55:03.643114,1093684,-5567,235,-526,-419,-6,-170,99,401,-183
88,2,2022-09-15T20:55:03.650221,1093689,-5567,235,-526,-419,-6,-170,99,401,-183
89,2,2022-09-15T20:55:03.655498,1093696,-5567,235,-526,-419,-6,-170,99,401,-183
90,2,2022-09-15T20:55:03.660646,1093702,-5555,236,-529,-460,-248,-359,99,401,-183
91,2,2022-09-15T20:55:03.667273,1093708,-5555,236,-529,-460,-248,-359,99,401,-183
92,2,2022-09-15T20:55:03.674391,1093714,-5555,236,-529,-460,-248,-359,99,401,-183
93,2,2022-09-15T20:55:03.679613,1093721,-5510,261,-538,-471,-279,-344,99,401,-183
94,2,2022-09-15T20:55:03.685300,1093726,-5510,261,-538,-471,-279,-344,99,401,-183
95,2,2022-09-15T20:55:03.690518,1093732,-5510,261,-538,-471,-279,-344,99,401,-183
96,2,2022-09-15T20:55:03.696317,1093737,-5510,261,-538,-471,-279,-344,99,401,-183
97,2,2022-09-15T20:55:03.703436,1093743,-5547,241,-530,-339,-294,-23,99,401,-183
98,2,2022-09-15T20:55:03.709102,1093749,-5547,241,-530,-339,-294,-23,99,401,-183
99,2,2022-09-15T20:55:03.714111,1093755,-5547,241,-530,-339,-294,-23,99,401,-183
100,2,2022-09-15T20:55:03.719870,1093761,-5436,299,-530,-197,-396,-17,99,401,-183
101,2,2022-09-15T20:55:03.725838,1093767,-5436,299,-530,-197,-396,-17,99,401,-183
102,2,2022-09-15T20:55:03.733317,1093774,-5436,299,-530,-197,-396,-17,99,401,-183
103,2,2022-09-15T20:55:03.738523,1093779,-5436,299,-530,-197,-396,-17,99,401,-183
104,2,2022-09-15T20:55:03.745058,1093785,-5545,274,-509,29,-136,728,99,401,-183
105,2,2022-09-15T20:55:03.751577,1093791,-5545,274,-509,29,-136,728,99,401,-183
106,2,2022-09-15T20:55:03.757031,1093797,-5545,274,-509,29,-136,728,99,401,-183
107,2,2022-09-15T20:55:03.762671,1093804,-5532,279,-514,89,-357,510,84,402,-174
108,2,2022-09-15T20:55:03.768534,1093809,-5532,279,-514,89,-357,510,84,402,-174
109,2,2022-09-15T20:55:03.775408,1093816,-5532,279,-514,89,-357,510,84,402,-174
110,2,2022-09-15T20:55:03.780710,1093822,-5517,310,-512,66,-301,327,84,402,-174
111,2,2022-09-15T20:55:03.788020,1093828,-5517,310,-512,66,-301,327,84,402,-174
112,2,2022-09-15T20:55:03.794950,1093835,-5517,310,-512,66,-301,327,84,402,-174
113,2,2022-09-15T20:55:03.801919,1093841,-5564,315,-505,52,-244,360,84,402,-174
114,2,2022-09-15T20:55:03.807829,1093849,-5564,315,-505,52,-244,360,84,402,-174
115,2,2022-09-15T20:55:03.815139,1093856,-5564,315,-505,52,-244,360,84,402,-174
116,2,2022-09-15T20:55:03.820841,1093861,-5523,331,-516,-37,-344,76,84,402,-174
117,2,2022-09-15T20:55:03.827816,1093867,-5523,331,-516,-37,-344,76,84,402,-174
118,2,2022-09-15T20:55:03.834054,1093874,-5523,331,-516,-37,-344,76,84,402,-174
119,2,2022-09-15T20:55:03.839284,1093880,-5531,334,-507,-181,-192,24,84,402,-174
120,2,2022-09-15T20:55:03.846996,1093886,-5531,334,-507,-181,-192,24,84,402,-174
121,2,2022-09-15T20:55:03.853661,1093894,-5531,334,-507,-181,-192,24,84,402,-174
122,2,2022-09-15T20:55:03.859372,1093900,-5531,334,-507,-181,-192,24,84,402,-174
123,2,2022-09-15T20:55:03.865955,1093906,-5545,320,-507,-344,-177,-39,84,402,-174
124,2,2022-09-15T20:55:03.872184,1093912,-5545,320,-507,-344,-177,-39,84,402,-174
125,2,2022-09-15T20:55:03.881139,1093921,-5538,308,-517,-457,-233,-197,98,406,-172
126,2,2022-09-15T20:55:03.887777,1093927,-5538,308,-517,-457,-233,-197,98,406,-172
127,2,2022-09-15T20:55:03.896898,1093937,-5538,308,-517,-457,-233,-197,98,406,-172
128,2,2022-09-15T20:55:03.903951,1093944,-5547,290,-518,-518,-224,-315,98,406,-172
129,2,2022-09-15T20:55:03.910486,1093951,-5547,290,-518,-518,-224,-315,98,406,-172
130,2,2022-09-15T20:55:03.916014,1093957,-5547,290,-518,-518,-224,-315,98,406,-172
131,2,2022-09-15T20:55:03.921573,1093962,-5534,283,-523,-517,-235,-465,98,406,-172
132,2,2022-09-15T20:55:03.929513,1093969,-5534,283,-523,-517,-235,-465,98,406,-172
133,2,2022-09-15T20:55:03.936583,1093978,-5534,283,-523,-517,-235,-465,98,406,-172
134,2,2022-09-15T20:55:03.941704,1093983,-5532,281,-524,-469,-219,-555,98,406,-172
135,2,2022-09-15T20:55:03.949063,1093989,-5532,281,-524,-469,-219,-555,98,406,-172
136,2,2022-09-15T20:55:03.956839,1093997,-5532,281,-524,-469,-219,-555,98,406,-172
137,2,2022-09-15T20:55:03.962153,1094003,-5544,272,-530,-425,-230,-666,98,406,-172
138,2,2022-09-15T20:55:03.967841,1094008,-5544,272,-530,-425,-230,-666,98,406,-172
139,2,2022-09-15T20:55:03.974016,1094013,-5544,272,-530,-425,-230,-666,98,406,-172
140,2,2022-09-15T20:55:03.979827,1094021,-5530,279,-526,-373,-284,-763,98,406,-172
141,2,2022-09-15T20:55:03.985698,1094027,-5530,279,-526,-373,-284,-763,98,406,-172
142,2,2022-09-15T20:55:03.992304,1094032,-5530,279,-526,-373,-284,-763,98,406,-172
143,2,2022-09-15T20:55:03.998894,1094038,-5530,279,-526,-373,-284,-763,98,406,-172
144,2,2022-09-15T20:55:04.004534,1094045,-5534,289,-522,-324,-338,-690,98,406,-172
145,2,2022-09-15T20:55:04.010878,1094051,-5534,289,-522,-324,-338,-690,98,406,-172
146,2,2022-09-15T20:55:04.016451,1094057,-5534,289,-522,-324,-338,-690,98,406,-172
147,2,2022-09-15T20:55:04.022970,1094063,-5527,279,-513,-315,-392,-581,88,394,-180
148,2,2022-09-15T20:55:04.028420,1094069,-5527,279,-513,-315,-392,-581,88,394,-180
149,2,2022-09-15T20:55:04.037258,1094078,-5527,279,-513,-315,-392,-581,88,394,-180
150,2,2022-09-15T20:55:04.042376,1094083,-5526,264,-510,-290,-467,-545,88,394,-180
151,2,2022-09-15T20:55:04.050573,1094090,-5526,264,-510,-290,-467,-545,88,394,-180
152,2,2022-09-15T20:55:04.056450,1094097,-5526,264,-510,-290,-467,-545,88,394,-180
153,2,2022-09-15T20:55:04.061734,1094103,-5524,258,-515,-199,-529,-522,88,394,-180
154,2,2022-09-15T20:55:04.067322,1094108,-5524,258,-515,-199,-529,-522,88,394,-180
155,2,2022-09-15T20:55:04.073709,1094114,-5524,258,-515,-199,-529,-522,88,394,-180
156,2,2022-09-15T20:55:04.080013,1094120,-5524,258,-515,-199,-529,-522,88,394,-180
157,2,2022-09-15T20:55:04.086557,1094127,-5533,263,-504,-66,-513,-450,88,394,-180
158,2,2022-09-15T20:55:04.094138,1094134,-5533,263,-504,-66,-513,-450,88,394,-180
159,2,2022-09-15T20:55:04.100454,1094140,-5516,261,-506,14,-491,-387,88,394,-180
160,2,2022-09-15T20:55:04.106469,1094147,-5516,261,-506,14,-491,-387,88,394,-180
161,2,2022-09-15T20:55:04.114283,1094155,-5516,261,-506,14,-491,-387,88,394,-180
162,2,2022-09-15T20:55:04.120169,1094161,-5516,266,-508,59,-376,-340,88,394,-180
163,2,2022-09-15T20:55:04.127143,1094167,-5516,266,-508,59,-376,-340,88,394,-180
164,2,2022-09-15T20:55:04.133612,1094173,-5516,266,-508,59,-376,-340,88,394,-180
165,2,2022-09-15T20:55:04.139894,1094180,-5516,266,-508,59,-376,-340,88,394,-180
166,2,2022-09-15T20:55:04.145761,1094187,-5517,265,-502,75,-266,-321,93,403,-187
167,2,2022-09-15T20:55:04.152332,1094193,-5517,265,-502,75,-266,-321,93,403,-187
168,2,2022-09-15T20:55:04.160971,1094201,-5527,264,-503,65,-210,-310,93,403,-187
169,2,2022-09-15T20:55:04.168041,1094208,-5527,264,-503,65,-210,-310,93,403,-187
170,2,2022-09-15T20:55:04.177305,1094216,-5527,264,-503,65,-210,-310,93,403,-187
171,2,2022-09-15T20:55:04.183115,1094223,-5527,268,-502,4,-206,-336,93,403,-187
172,2,2022-09-15T20:55:04.188415,1094228,-5527,268,-502,4,-206,-336,93,403,-187
173,2,2022-09-15T20:55:04.193632,1094235,-5527,268,-502,4,-206,-336,93,403,-187
174,2,2022-09-15T20:55:04.200052,1094240,-5527,268,-502,4,-206,-336,93,403,-187
175,2,2022-09-15T20:55:04.206533,1094246,-5524,272,-509,-127,-182,-368,93,403,-187
176,2,2022-09-15T20:55:04.212162,1094253,-5524,272,-509,-127,-182,-368,93,403,-187
177,2,2022-09-15T20:55:04.217722,1094258,-5524,272,-509,-127,-182,-368,93,403,-187
178,2,2022-09-15T20:55:04.224012,1094264,-5532,263,-512,-330,-176,-369,93,403,-187
179,2,2022-09-15T20:55:04.232425,1094274,-5532,263,-512,-330,-176,-369,93,403,-187
180,2,2022-09-15T20:55:04.238025,1094279,-5532,263,-512,-330,-176,-369,93,403,-187
181,2,2022-09-15T20:55:04.243157,1094284,-5523,251,-510,-458,-249,-362,93,403,-187
182,2,2022-09-15T20:55:04.250694,1094291,-5523,251,-510,-458,-249,-362,93,403,-187
183,2,2022-09-15T20:55:04.258468,1094299,-5523,251,-510,-458,-249,-362,93,403,-187
184,2,2022-09-15T20:55:04.263653,1094304,-5538,237,-506,-423,-270,-151,94,406,-180
185,2,2022-09-15T20:55:04.269160,1094310,-5538,237,-506,-423,-270,-151,94,406,-180
186,2,2022-09-15T20:55:04.278122,1094318,-5538,237,-506,-423,-270,-151,94,406,-180
187,2,2022-09-15T20:55:04.283587,1094324,-5525,228,-507,-245,-350,-24,94,406,-180
188,2,2022-09-15T20:55:04.289750,1094330,-5525,228,-507,-245,-350,-24,94,406,-180
189,2,2022-09-15T20:55:04.296730,1094337,-5525,228,-507,-245,-350,-24,94,406,-180
190,2,2022-09-15T20:55:04.302682,1094343,-5524,241,-504,-106,-389,74,94,406,-180
191,2,2022-09-15T20:55:04.309686,1094350,-5524,241,-504,-106,-389,74,94,406,-180
192,2,2022-09-15T20:55:04.314592,1094355,-5524,241,-504,-106,-389,74,94,406,-180
193,2,2022-09-15T20:55:04.320076,1094361,-5530,252,-497,-45,-458,119,94,406,-180
194,2,2022-09-15T20:55:04.328632,1094369,-5530,252,-497,-45,-458,119,94,406,-180
195,2,2022-09-15T20:55:04.334205,1094375,-5530,252,-497,-45,-458,119,94,406,-180
196,2,2022-09-15T20:55:04.339615,1094380,-5530,252,-497,-45,-458,119,94,406,-180
197,2,2022-09-15T20:55:04.346295,1094386,-5529,250,-493,0,-487,98,94,406,-180
198,2,2022-09-15T20:55:04.352799,1094393,-5529,250,-493,0,-487,98,94,406,-180
199,2,2022-09-15T20:55:04.358554,1094398,-5529,250,-493,0,-487,98,94,406,-180
200,2,2022-09-15T20:55:04.363732,1094405,-5537,257,-486,12,-482,36,94,406,-180
201,2,2022-09-15T20:55:04.369628,1094410,-5537,257,-486,12,-482,36,94,406,-180
202,2,2022-09-15T20:55:04.377609,1094418,-5537,257,-486,12,-482,36,94,406,-180
203,2,2022-09-15T20:55:04.382734,1094424,-5521,259,-488,28,-511,-45,96,398,-176
204,2,2022-09-15T20:55:04.389785,1094430,-5521,259,-488,28,-511,-45,96,398,-176
205,2,2022-09-15T20:55:04.396835,1094437,-5521,259,-488,28,-511,-45,96,398,-176
206,2,2022-09-15T20:55:04.403765,1094444,-5525,260,-486,-39,-511,-114,96,398,-176
207,2,2022-09-15T20:55:04.410367,1094451,-5525,260,-486,-39,-511,-114,96,398,-176
208,2,2022-09-15T20:55:04.417409,1094459,-5525,260,-486,-39,-511,-114,96,398,-176
209,2,2022-09-15T20:55:04.423107,1094464,-5546,257,-479,-94,-541,-124,96,398,-176
210,2,2022-09-15T20:55:04.430972,1094471,-5546,257,-479,-94,-541,-124,96,398,-176
211,2,2022-09-15T20:55:04.436616,1094477,-5546,257,-479,-94,-541,-124,96,398,-176
212,2,2022-09-15T20:55:04.441249,1094482,-5533,255,-480,-174,-606,-144,96,398,-176
213,2,2022-09-15T20:55:04.448888,1094489,-5533,255,-480,-174,-606,-144,96,398,-176
214,2,2022-09-15T20:55:04.454957,1094496,-5533,255,-480,-174,-606,-144,96,398,-176
215,2,2022-09-15T20:55:04.460484,1094501,-5521,261,-476,-153,-610,-96,96,398,-176
216,2,2022-09-15T20:55:04.466014,1094507,-5521,261,-476,-153,-610,-96,96,398,-176
217,2,2022-09-15T20:55:04.471686,1094512,-5521,261,-476,-153,-610,-96,96,398,-176
218,2,2022-09-15T20:55:04.477715,1094518,-5521,261,-476,-153,-610,-96,96,398,-176
219,2,2022-09-15T20:55:04.483198,1094524,-5526,254,-468,-109,-563,8,96,398,-176
220,2,2022-09-15T20:55:04.488588,1094530,-5526,254,-468,-109,-563,8,96,398,-176
221,2,2022-09-15T20:55:04.493904,1094535,-5526,254,-468,-109,-563,8,96,398,-176
222,2,2022-09-15T20:55:04.500825,1094541,-5526,254,-468,-109,-563,8,96,398,-176
223,2,2022-09-15T20:55:04.506411,1094547,-5512,263,-456,-37,-542,60,84,398,-182
224,2,2022-09-15T20:55:04.512143,1094553,-5512,263,-456,-37,-542,60,84,398,-182
225,2,2022-09-15T20:55:04.517380,1094558,-5512,263,-456,-37,-542,60,84,398,-182
226,2,2022-09-15T20:55:04.522973,1094563,-5507,272,-459,21,-425,107,84,398,-182
227,2,2022-09-15T20:55:04.529294,1094569,-5507,272,-459,21,-425,107,84,398,-182
228,2,2022-09-15T20:55:04.536394,1094578,-5507,272,-459,21,-425,107,84,398,-182
229,2,2022-09-15T20:55:04.541809,1094583,-5512,282,-460,32,-320,55,84,398,-182
230,2,2022-09-15T20:55:04.549389,1094589,-5512,282,-460,32,-320,55,84,398,-182
231,2,2022-09-15T20:55:04.555875,1094595,-5512,282,-460,32,-320,55,84,398,-182
232,2,2022-09-15T20:55:04.561229,1094602,-5519,281,-458,0,-215,-48,84,398,-182
233,2,2022-09-15T20:55:04.566842,1094607,-5519,281,-458,0,-215,-48,84,398,-182
234,2,2022-09-15T20:55:04.573056,1094612,-5519,281,-458,0,-215,-48,84,398,-182
235,2,2022-09-15T20:55:04.578453,1094619,-5519,281,-458,0,-215,-48,84,398,-182
236,2,2022-09-15T20:55:04.583779,1094625,-5529,274,-460,-71,-126,-162,84,398,-182
237,2,2022-09-15T20:55:04.591103,1094632,-5529,274,-460,-71,-126,-162,84,398,-182
238,2,2022-09-15T20:55:04.597266,1094637,-5529,274,-460,-71,-126,-162,84,398,-182
239,2,2022-09-15T20:55:04.603538,1094643,-5528,274,-463,-173,-140,-314,84,398,-182
240,2,2022-09-15T20:55:04.609274,1094650,-5528,274,-463,-173,-140,-314,84,398,-182
241,2,2022-09-15T20:55:04.614301,1094656,-5528,274,-463,-173,-140,-314,84,398,-182
242,2,2022-09-15T20:55:04.619497,1094661,-5528,274,-463,-173,-140,-314,84,398,-182
243,2,2022-09-15T20:55:04.626031,1094666,-5517,265,-476,-294,-80,-334,84,398,-182
244,2,2022-09-15T20:55:04.632012,1094672,-5517,265,-476,-294,-80,-334,84,398,-182
245,2,2022-09-15T20:55:04.637437,1094678,-5517,265,-476,-294,-80,-334,84,398,-182
246,2,2022-09-15T20:55:04.642475,1094683,-5531,265,-469,-409,-39,-291,93,403,-173
247,2,2022-09-15T20:55:04.650174,1094689,-5531,265,-469,-409,-39,-291,93,403,-173
248,2,2022-09-15T20:55:04.656170,1094696,-5531,265,-469,-409,-39,-291,93,403,-173
249,2,2022-09-15T20:55:04.661232,1094703,-5533,256,-479,-540,-69,-196,93,403,-173
250,2,2022-09-15T20:55:04.667549,1094708,-5533,256,-479,-540,-69,-196,93,403,-173
251,2,2022-09-15T20:55:04.675152,1094716,-5533,256,-479,-540,-69,-196,93,403,-173
252,2,2022-09-15T20:55:04.680559,1094721,-5523,240,-494,-622,-95,-141,93,403,-173
253,2,2022-09-15T20:55:04.686313,1094727,-5523,240,-494,-622,-95,-141,93,403,-173
254,2,2022-09-15T20:55:04.691867,1094732,-5523,240,-494,-622,-95,-141,93,403,-173
255,2,2022-09-15T20:55:04.698424,1094738,-5523,240,-494,-622,-95,-141,93,403,-173
256,2,2022-09-15T20:55:04.703932,1094745,-5538,240,-490,-565,-51,-47,93,403,-173
257,2,2022-09-15T20:55:04.709549,1094750,-5538,240,-490,-565,-51,-47,93,403,-173
258,2,2022-09-15T20:55:04.714813,1094756,-5538,240,-490,-565,-51,-47,93,403,-173
259,2,2022-09-15T20:55:04.720003,1094761,-5523,248,-497,-493,-124,-84,93,403,-173
260,2,2022-09-15T20:55:04.725627,1094766,-5523,248,-497,-493,-124,-84,93,403,-173
261,2,2022-09-15T20:55:04.731303,1094772,-5523,248,-497,-493,-124,-84,93,403,-173
262,2,2022-09-15T20:55:04.736790,1094777,-5523,248,-497,-493,-124,-84,93,403,-173
263,2,2022-09-15T20:55:04.741950,1094784,-5513,252,-496,-479,-156,-17,93,403,-173
264,2,2022-09-15T20:55:04.748544,1094789,-5513,252,-496,-479,-156,-17,93,403,-173
265,2,2022-09-15T20:55:04.755966,1094797,-5513,252,-496,-479,-156,-17,93,403,-173
266,2,2022-09-15T20:55:04.761105,1094802,-5514,254,-492,-504,-133,69,98,400,-180
267,2,2022-09-15T20:55:04.766915,1094807,-5514,254,-492,-504,-133,69,98,400,-180
268,2,2022-09-15T20:55:04.772988,1094813,-5514,254,-492,-504,-133,69,98,400,-180
269,2,2022-09-15T20:55:04.779490,1094819,-5514,254,-492,-504,-133,69,98,400,-180
270,2,2022-09-15T20:55:04.785824,1094827,-5521,258,-496,-499,-126,131,98,400,-180
271,2,2022-09-15T20:55:04.791418,1094832,-5521,258,-496,-499,-126,131,98,400,-180
272,2,2022-09-15T20:55:04.798687,1094839,-5521,258,-496,-499,-126,131,98,400,-180
273,2,2022-09-15T20:55:04.804264,1094845,-5523,262,-503,-469,-136,223,98,400,-180
274,2,2022-09-15T20:55:04.809588,1094850,-5523,262,-503,-469,-136,223,98,400,-180
275,2,2022-09-15T20:55:04.816265,1094857,-5523,262,-503,-469,-136,223,98,400,-180
276,2,2022-09-15T20:55:04.822129,1094862,-5528,261,-502,-441,-122,328,98,400,-180
277,2,2022-09-15T20:55:04.827702,1094868,-5528,261,-502,-441,-122,328,98,400,-180
278,2,2022-09-15T20:55:04.833242,1094874,-5528,261,-502,-441,-122,328,98,400,-180
279,2,2022-09-15T20:55:04.838716,1094880,-5528,261,-502,-441,-122,328,98,400,-180
280,2,2022-09-15T20:55:04.843961,1094885,-5541,261,-505,-381,-121,453,98,400,-180
281,2,2022-09-15T20:55:04.850647,1094890,-5541,261,-505,-381,-121,453,98,400,-180
282,2,2022-09-15T20:55:04.856211,1094897,-5541,261,-505,-381,-121,453,98,400,-180
283,2,2022-09-15T20:55:04.861532,1094902,-5544,258,-504,-374,-175,480,98,400,-180
284,2,2022-09-15T20:55:04.868162,1094909,-5544,258,-504,-374,-175,480,98,400,-180
285,2,2022-09-15T20:55:04.874949,1094915,-5544,258,-504,-374,-175,480,98,400,-180
286,2,2022-09-15T20:55:04.880376,1094922,-5537,271,-495,-343,-226,413,95,401,-175
287,2,2022-09-15T20:55:04.887429,1094928,-5537,271,-495,-343,-226,413,95,401,-175
288,2,2022-09-15T20:55:04.892523,1094934,-5537,271,-495,-343,-226,413,95,401,-175
289,2,2022-09-15T20:55:04.898890,1094939,-5537,271,-495,-343,-226,413,95,401,-175
290,2,2022-09-15T20:55:04.904328,1094945,-5532,273,-505,-281,-258,310,95,401,-175
291,2,2022-09-15T20:55:04.910145,1094950,-5532,273,-505,-281,-258,310,95,401,-175
292,2,2022-09-15T20:55:04.917140,1094958,-5532,273,-505,-281,-258,310,95,401,-175
293,2,2022-09-15T20:55:04.923604,1094964,-5523,280,-505,-261,-288,211,95,401,-175
294,2,2022-09-15T20:55:04.929383,1094970,-5523,280,-505,-261,-288,211,95,401,-175
295,2,2022-09-15T20:55:04.935188,1094976,-5523,280,-505,-261,-288,211,95,401,-175
296,2,2022-09-15T20:55:04.940588,1094981,-5518,285,-500,-266,-281,126,95,401,-175
297,2,2022-09-15T20:55:04.946931,1094986,-5518,285,-500,-266,-281,126,95,401,-175
298,2,2022-09-15T20:55:04.954203,1094994,-5518,285,-500,-266,-281,126,95,401,-175
299,2,2022-09-15T20:55:04.960305,1095002,-5524,281,-507,-273,-254,152,95,401,-175
300,2,2022-09-15T20:55:04.967566,1095009,-5524,281,-507,-273,-254,152,95,401,-175
301,2,2022-09-15T20:55:04.973694,1095014,-5524,281,-507,-273,-254,152,95,401,-175
302,2,2022-09-15T20:55:04.980156,1095021,-5524,281,-507,-273,-254,152,95,401,-175
303,2,2022-09-15T20:55:04.985343,1095026,-5533,283,-509,-286,-257,196,95,401,-175
304,2,2022-09-15T20:55:04.991610,1095031,-5533,283,-509,-286,-257,196,95,401,-175
305,2,2022-09-15T20:55:04.997451,1095037,-5533,283,-509,-286,-257,196,95,401,-175
306,2,2022-09-15T20:55:05.003785,1095044,-5540,281,-502,-304,-275,257,94,398,-180
307,2,2022-09-15T20:55:05.009859,1095050,-5540,281,-502,-304,-275,257,94,398,-180
308,2,2022-09-15T20:55:05.015397,1095056,-5540,281,-502,-304,-275,257,94,398,-180
309,2,2022-09-15T20:55:05.021198,1095062,-5542,282,-505,-330,-331,266,94,398,-180
310,2,2022-09-15T20:55:05.027485,1095067,-5542,282,-505,-330,-331,266,94,398,-180
311,2,2022-09-15T20:55:05.033740,1095074,-5542,282,-505,-330,-331,266,94,398,-180
312,2,2022-09-15T20:55:05.039206,1095080,-5542,282,-505,-330,-331,266,94,398,-180
313,2,2022-09-15T20:55:05.044736,1095086,-5536,298,-506,-328,-418,266,94,398,-180
314,2,2022-09-15T20:55:05.051425,1095092,-5536,298,-506,-328,-418,266,94,398,-180
315,2,2022-09-15T20:55:05.058669,1095099,-5536,298,-506,-328,-418,266,94,398,-180
316,2,2022-09-15T20:55:05.063864,1095105,-5537,308,-496,-375,-471,290,94,398,-180
317,2,2022-09-15T20:55:05.069658,1095110,-5537,308,-496,-375,-471,290,94,398,-180
318,2,2022-09-15T20:55:05.076440,1095116,-5537,308,-496,-375,-471,290,94,398,-180
319,2,2022-09-15T20:55:05.081644,1095122,-5538,307,-492,-433,-573,297,94,398,-180
320,2,2022-09-15T20:55:05.089149,1095131,-5538,307,-492,-433,-573,297,94,398,-180
321,2,2022-09-15T20:55:05.094511,1095136,-5538,307,-492,-433,-573,297,94,398,-180
322,2,2022-09-15T20:55:05.100161,1095141,-5538,307,-492,-433,-573,297,94,398,-180
323,2,2022-09-15T20:55:05.105425,1095147,-5536,306,-487,-453,-700,275,94,398,-180
324,2,2022-09-15T20:55:05.110536,1095151,-5536,306,-487,-453,-700,275,94,398,-180
325,2,2022-09-15T20:55:05.117146,1095158,-5536,306,-487,-453,-700,275,94,398,-180
326,2,2022-09-15T20:55:05.123009,1095163,-5533,304,-481,-415,-763,168,87,403,-169
327,2,2022-09-15T20:55:05.129321,1095170,-5533,304,-481,-415,-763,168,87,403,-169
328,2,2022-09-15T20:55:05.136314,1095178,-5533,304,-481,-415,-763,168,87,403,-169
329,2,2022-09-15T20:55:05.141715,1095183,-5535,307,-465,-351,-715,-20,87,403,-169
330,2,2022-09-15T20:55:05.147261,1095188,-5535,307,-465,-351,-715,-20,87,403,-169
331,2,2022-09-15T20:55:05.153973,1095194,-5535,307,-465,-351,-715,-20,87,403,-169
332,2,2022-09-15T20:55:05.159372,1095200,-5535,307,-465,-351,-715,-20,87,403,-169
333,2,2022-09-15T20:55:05.164788,1095205,-5519,310,-461,-283,-712,-250,87,403,-169
334,2,2022-09-15T20:55:05.170280,1095211,-5519,310,-461,-283,-712,-250,87,403,-169
335,2,2022-09-15T20:55:05.178171,1095219,-5519,310,-461,-283,-712,-250,87,403,-169
336,2,2022-09-15T20:55:05.183718,1095225,-5519,306,-455,-212,-642,-382,87,403,-169
337,2,2022-09-15T20:55:05.189525,1095230,-5519,306,-455,-212,-642,-382,87,403,-169
338,2,2022-09-15T20:55:05.195065,1095236,-5519,306,-455,-212,-642,-382,87,403,-169
339,2,2022-09-15T20:55:05.201530,1095242,-5518,314,-456,-154,-546,-528,87,403,-169
340,2,2022-09-15T20:55:05.206737,1095247,-5518,314,-456,-154,-546,-528,87,403,-169
341,2,2022-09-15T20:55:05.212268,1095254,-5518,314,-456,-154,-546,-528,87,403,-169
342,2,2022-09-15T20:55:05.219228,1095260,-5518,314,-456,-154,-546,-528,87,403,-169
343,2,2022-09-15T20:55:05.225312,1095266,-5542,300,-443,-109,-469,-573,87,403,-169
344,2,2022-09-15T20:55:05.231087,1095272,-5542,300,-443,-109,-469,-573,87,403,-169
345,2,2022-09-15T20:55:05.237649,1095278,-5542,300,-443,-109,-469,-573,87,403,-169
346,2,2022-09-15T20:55:05.242684,1095284,-5533,304,-442,-64,-507,-665,87,403,-169
347,2,2022-09-15T20:55:05.250547,1095290,-5533,304,-442,-64,-507,-665,87,403,-169
348,2,2022-09-15T20:55:05.256470,1095297,-5533,304,-442,-64,-507,-665,87,403,-169
349,2,2022-09-15T20:55:05.261622,1095303,-5533,304,-442,-64,-507,-665,93,401,-169
350,2,2022-09-15T20:55:05.267997,1095309,-5533,304,-442,-64,-507,-665,93,401,-169
351,2,2022-09-15T20:55:05.275152,1095316,-5533,304,-442,-64,-507,-665,93,401,-169
352,2,2022-09-15T20:55:05.280638,1095321,-5533,304,-442,-64,-507,-665,93,401,-169
353,2,2022-09-15T20:55:05.285759,1095326,-5522,296,-434,-25,-410,-811,93,401,-169
354,2,2022-09-15T20:55:05.291553,1095332,-5522,296,-434,-25,-410,-811,93,401,-169
355,2,2022-09-15T20:55:05.299621,1095340,-5522,296,-434,-25,-410,-811,93,401,-169
356,2,2022-09-15T20:55:05.305675,1095347,-5531,294,-434,-98,-274,-820,93,401,-169
357,2,2022-09-15T20:55:05.311353,1095352,-5531,294,-434,-98,-274,-820,93,401,-169
358,2,2022-09-15T20:55:05.317484,1095359,-5531,294,-434,-98,-274,-820,93,401,-169
359,2,2022-09-15T20:55:05.323312,1095364,-5524,301,-435,-215,-260,-845,93,401,-169
360,2,2022-09-15T20:55:05.329523,1095370,-5524,301,-435,-215,-260,-845,93,401,-169
361,2,2022-09-15T20:55:05.335854,1095377,-5524,301,-435,-215,-260,-845,93,401,-169
362,2,2022-09-15T20:55:05.341091,1095383,-5510,293,-445,-392,-278,-832,93,401,-169
363,2,2022-09-15T20:55:05.347483,1095388,-5510,293,-445,-392,-278,-832,93,401,-169
364,2,2022-09-15T20:55:05.354022,1095395,-5510,293,-445,-392,-278,-832,93,401,-169
365,2,2022-09-15T20:55:05.360421,1095401,-5510,293,-445,-392,-278,-832,93,401,-169
366,2,2022-09-15T20:55:05.367270,1095408,-5509,285,-453,-562,-242,-694,93,401,-169
367,2,2022-09-15T20:55:05.373848,1095413,-5509,285,-453,-562,-242,-694,93,401,-169
368,2,2022-09-15T20:55:05.379849,1095420,-5509,285,-453,-562,-242,-694,93,401,-169
369,2,2022-09-15T20:55:05.385552,1095426,-5517,273,-458,-682,-247,-526,97,397,-177
370,2,2022-09-15T20:55:05.391167,1095432,-5517,273,-458,-682,-247,-526,97,397,-177
371,2,2022-09-15T20:55:05.398715,1095439,-5517,273,-458,-682,-247,-526,97,397,-177
372,2,2022-09-15T20:55:05.403955,1095445,-5515,247,-466,-730,-270,-391,97,397,-177
373,2,2022-09-15T20:55:05.410817,1095452,-5515,247,-466,-730,-270,-391,97,397,-177
374,2,2022-09-15T20:55:05.416651,1095457,-5515,247,-466,-730,-270,-391,97,397,-177
375,2,2022-09-15T20:55:05.422580,1095462,-5523,226,-458,-704,-286,-397,97,397,-177
376,2,2022-09-15T20:55:05.431763,1095473,-5523,226,-458,-704,-286,-397,97,397,-177
377,2,2022-09-15T20:55:05.436780,1095478,-5523,226,-458,-704,-286,-397,97,397,-177
378,2,2022-09-15T20:55:05.441944,1095483,-5557,204,-453,-595,-325,-353,97,397,-177
379,2,2022-09-15T20:55:05.448706,1095488,-5557,204,-453,-595,-325,-353,97,397,-177
380,2,2022-09-15T20:55:05.454987,1095496,-5557,204,-453,-595,-325,-353,97,397,-177
381,2,2022-09-15T20:55:05.461544,1095502,-5533,198,-445,-370,-506,-411,97,397,-177
382,2,2022-09-15T20:55:05.468176,1095508,-5533,198,-445,-370,-506,-411,97,397,-177
383,2,2022-09-15T20:55:05.474638,1095515,-5533,198,-445,-370,-506,-411,97,397,-177
384,2,2022-09-15T20:55:05.480408,1095521,-5533,198,-445,-370,-506,-411,97,397,-177
385,2,2022-09-15T20:55:05.486713,1095528,-5519,213,-444,-96,-640,-356,97,397,-177
386,2,2022-09-15T20:55:05.492085,1095533,-5519,213,-444,-96,-640,-356,97,397,-177
387,2,2022-09-15T20:55:05.499744,1095540,-5519,213,-444,-96,-640,-356,97,397,-177
388,2,2022-09-15T20:55:05.505436,1095546,-5500,235,-433,94,-638,-162,103,405,-171
389,2,2022-09-15T20:55:05.510612,1095552,-5500,235,-433,94,-638,-162,103,405,-171
390,2,2022-09-15T20:55:05.517568,1095559,-5500,235,-433,94,-638,-162,103,405,-171
391,2,2022-09-15T20:55:05.523545,1095564,-5511,262,-431,157,-552,88,103,405,-171
392,2,2022-09-15T20:55:05.530666,1095571,-5511,262,-431,157,-552,88,103,405,-171
393,2,2022-09-15T20:55:05.535827,1095577,-5511,262,-431,157,-552,88,103,405,-171
394,2,2022-09-15T20:55:05.540965,1095582,-5495,279,-431,105,-513,265,103,405,-171
395,2,2022-09-15T20:55:05.546930,1095587,-5495,279,-431,105,-513,265,103,405,-171
396,2,2022-09-15T20:55:05.553810,1095593,-5495,279,-431,105,-513,265,103,405,-171
397,2,2022-09-15T20:55:05.559206,1095600,-5495,279,-431,105,-513,265,103,405,-171
398,2,2022-09-15T20:55:05.564763,1095606,-5503,282,-427,-27,-417,382,103,405,-171
399,2,2022-09-15T20:55:05.570497,1095611,-5503,282,-427,-27,-417,382,103,405,-171
400,2,2022-09-15T20:55:05.578207,1095619,-5503,282,-427,-27,-417,382,103,405,-171
401,2,2022-09-15T20:55:05.583618,1095624,-5511,277,-433,-189,-325,323,103,405,-171
402,2,2022-09-15T20:55:05.590179,1095631,-5511,277,-433,-189,-325,323,103,405,-171
403,2,2022-09-15T20:55:05.596714,1095638,-5511,277,-433,-189,-325,323,103,405,-171
404,2,2022-09-15T20:55:05.602968,1095644,-5515,269,-433,-302,-258,174,103,405,-171
405,2,2022-09-15T20:55:05.608578,1095650,-5515,269,-433,-302,-258,174,103,405,-171
406,2,2022-09-15T20:55:05.615330,1095656,-5515,269,-433,-302,-258,174,103,405,-171
407,2,2022-09-15T20:55:05.620335,1095661,-5515,269,-433,-302,-258,174,103,405,-171
408,2,2022-09-15T20:55:05.626776,1095667,-5515,258,-434,-365,-188,-21,94,400,-170
409,2,2022-09-15T20:55:05.632322,1095673,-5515,258,-434,-365,-188,-21,94,400,-170
410,2,2022-09-15T20:55:05.637669,1095678,-5515,258,-434,-365,-188,-21,94,400,-170
411,2,2022-09-15T20:55:05.642738,1095684,-5526,254,-436,-390,-79,-172,94,400,-170
412,2,2022-09-15T20:55:05.650786,1095691,-5526,254,-436,-390,-79,-172,94,400,-170
413,2,2022-09-15T20:55:05.657846,1095699,-5526,254,-436,-390,-79,-172,94,400,-170
414,2,2022-09-15T20:55:05.663316,1095704,-5536,249,-428,-325,-59,-246,94,400,-170
415,2,2022-09-15T20:55:05.670216,1095711,-5536,249,-428,-325,-59,-246,94,400,-170
416,2,2022-09-15T20:55:05.677890,1095718,-5536,249,-428,-325,-59,-246,94,400,-170
417,2,2022-09-15T20:55:05.683195,1095725,-5517,247,-436,-242,-69,-304,94,400,-170
418,2,2022-09-15T20:55:05.688861,1095730,-5517,247,-436,-242,-69,-304,94,400,-170
419,2,2022-09-15T20:55:05.695331,1095737,-5517,247,-436,-242,-69,-304,94,400,-170
420,2,2022-09-15T20:55:05.702011,1095742,-5533,239,-442,-160,18,-286,94,400,-170
421,2,2022-09-15T20:55:05.707603,1095748,-5533,239,-442,-160,18,-286,94,400,-170
422,2,2022-09-15T20:55:05.712714,1095754,-5533,239,-442,-160,18,-286,94,400,-170
423,2,2022-09-15T20:55:05.717799,1095759,-5533,239,-442,-160,18,-286,94,400,-170
424,2,2022-09-15T20:55:05.723235,1095763,-5527,241,-440,-95,86,-351,94,400,-170
425,2,2022-09-15T20:55:05.728720,1095770,-5527,241,-440,-95,86,-351,94,400,-170
426,2,2022-09-15T20:55:05.733853,1095775,-5527,241,-440,-95,86,-351,94,400,-170
427,2,2022-09-15T20:55:05.739439,1095780,-5527,241,-440,-95,86,-351,94,400,-170
428,2,2022-09-15T20:55:05.744849,1095786,-5520,241,-444,-62,168,-313,99,401,-169
429,2,2022-09-15T20:55:05.751139,1095791,-5520,241,-444,-62,168,-313,99,401,-169
430,2,2022-09-15T20:55:05.757070,1095797,-5520,241,-444,-62,168,-313,99,401,-169
431,2,2022-09-15T20:55:05.762379,1095803,-5518,244,-447,-40,224,-208,99,401,-169
432,2,2022-09-15T20:55:05.769071,1095810,-5518,244,-447,-40,224,-208,99,401,-169
433,2,2022-09-15T20:55:05.776696,1095817,-5518,244,-447,-40,224,-208,99,401,-169
434,2,2022-09-15T20:55:05.782077,1095823,-5521,242,-455,-25,290,-79,99,401,-169
435,2,2022-09-15T20:55:05.787791,1095828,-5521,242,-455,-25,290,-79,99,401,-169
436,2,2022-09-15T20:55:05.793336,1095834,-5521,242,-455,-25,290,-79,99,401,-169
437,2,2022-09-15T20:55:05.800836,1095841,-5521,242,-455,-25,290,-79,99,401,-169
438,2,2022-09-15T20:55:05.806794,1095847,-5535,240,-465,-31,282,-55,99,401,-169
439,2,2022-09-15T20:55:05.812533,1095854,-5535,240,-465,-31,282,-55,99,401,-169
440,2,2022-09-15T20:55:05.817850,1095859,-5535,240,-465,-31,282,-55,99,401,-169
441,2,2022-09-15T20:55:05.824173,1095865,-5540,241,-460,-36,172,-112,99,401,-169
442,2,2022-09-15T20:55:05.830506,1095871,-5540,241,-460,-36,172,-112,99,401,-169
443,2,2022-09-15T20:55:05.835753,1095877,-5540,241,-460,-36,172,-112,99,401,-169
444,2,2022-09-15T20:55:05.841169,1095882,-5533,254,-463,-58,49,-252,99,401,-169
445,2,2022-09-15T20:55:05.847381,1095887,-5533,254,-463,-58,49,-252,99,401,-169
446,2,2022-09-15T20:55:05.853857,1095895,-5533,254,-463,-58,49,-252,99,401,-169
447,2,2022-09-15T20:55:05.860868,1095902,-5533,254,-463,-58,49,-252,99,401,-169
448,2,2022-09-15T20:55:05.867294,1095909,-5527,260,-462,-119,-48,-324,99,401,-169
449,2,2022-09-15T20:55:05.873527,1095914,-5527,260,-462,-119,-48,-324,99,401,-169
450,2,2022-09-15T20:55:05.880796,1095922,-5527,260,-462,-119,-48,-324,99,401,-169
451,2,2022-09-15T20:55:05.886222,1095927,-5527,259,-450,-213,-109,-309,94,400,-172
452,2,2022-09-15T20:55:05.891670,1095932,-5527,259,-450,-213,-109,-309,94,400,-172
453,2,2022-09-15T20:55:05.899629,1095940,-5527,259,-450,-213,-109,-309,94,400,-172
454,2,2022-09-15T20:55:05.905474,1095946,-5510,255,-460,-332,-184,-315,94,400,-172
455,2,2022-09-15T20:55:05.912051,1095952,-5510,255,-460,-332,-184,-315,94,400,-172
456,2,2022-09-15T20:55:05.918646,1095959,-5510,255,-460,-332,-184,-315,94,400,-172
457,2,2022-09-15T20:55:05.925300,1095965,-5520,250,-461,-410,-190,-243,94,400,-172
458,2,2022-09-15T20:55:05.931524,1095971,-5520,250,-461,-410,-190,-243,94,400,-172
459,2,2022-09-15T20:55:05.936794,1095977,-5520,250,-461,-410,-190,-243,94,400,-172
460,2,2022-09-15T20:55:05.942408,1095984,-5532,237,-473,-406,-220,-142,94,400,-172
461,2,2022-09-15T20:55:05.951038,1095989,-5532,237,-473,-406,-220,-142,94,400,-172
462,2,2022-09-15T20:55:05.957452,1095998,-5532,237,-473,-406,-220,-142,94,400,-172
463,2,2022-09-15T20:55:05.964127,1096005,-5525,217,-473,-287,-313,-180,94,400,-172
464,2,2022-09-15T20:55:05.969633,1096010,-5525,217,-473,-287,-313,-180,94,400,-172
465,2,2022-09-15T20:55:05.977593,1096018,-5525,217,-473,-287,-313,-180,94,400,-172
466,2,2022-09-15T20:55:05.982940,1096024,-5526,213,-479,-132,-238,-287,94,400,-172
467,2,2022-09-15T20:55:05.989430,1096030,-5526,213,-479,-132,-238,-287,94,400,-172
468,2,2022-09-15T20:55:05.995138,1096036,-5526,213,-479,-132,-238,-287,94,400,-172
469,2,2022-09-15T20:55:06.001313,1096042,-5526,213,-479,-132,-238,-287,94,400,-172
470,2,2022-09-15T20:55:06.007076,1096048,-5523,226,-468,16,-126,-390,94,408,-172
471,2,2022-09-15T20:55:06.012390,1096053,-5523,226,-468,16,-126,-390,94,408,-172
472,2,2022-09-15T20:55:06.018973,1096060,-5523,226,-468,16,-126,-390,94,408,-172
473,2,2022-09-15T20:55:06.025467,1096066,-5522,248,-463,128,-123,-289,94,408,-172
474,2,2022-09-15T20:55:06.031112,1096072,-5522,248,-463,128,-123,-289,94,408,-172
475,2,2022-09-15T20:55:06.036699,1096078,-5522,248,-463,128,-123,-289,94,408,-172
476,2,2022-09-15T20:55:06.041997,1096083,-5525,254,-451,182,-237,-96,94,408,-172
477,2,2022-09-15T20:55:06.050304,1096091,-5525,254,-451,182,-237,-96,94,408,-172
478,2,2022-09-15T20:55:06.057531,1096098,-5525,254,-451,182,-237,-96,94,408,-172
479,2,2022-09-15T20:55:06.062870,1096103,-5538,244,-440,180,-381,25,94,408,-172
480,2,2022-09-15T20:55:06.069187,1096111,-5538,244,-440,180,-381,25,94,408,-172
481,2,2022-09-15T20:55:06.076606,1096117,-5538,244,-440,180,-381,25,94,408,-172
482,2,2022-09-15T20:55:06.081660,1096123,-5536,247,-441,169,-506,-54,94,408,-172
483,2,2022-09-15T20:55:06.088535,1096129,-5536,247,-441,169,-506,-54,94,408,-172
484,2,2022-09-15T20:55:06.093570,1096135,-5536,247,-441,169,-506,-54,94,408,-172
485,2,2022-09-15T20:55:06.099447,1096139,-5536,247,-441,169,-506,-54,94,408,-172
486,2,2022-09-15T20:55:06.104733,1096145,-5526,249,-444,128,-425,-228,94,408,-172
487,2,2022-09-15T20:55:06.111204,1096153,-5526,249,-444,128,-425,-228,94,408,-172
488,2,2022-09-15T20:55:06.117689,1096159,-5526,249,-444,128,-425,-228,94,408,-172
489,2,2022-09-15T20:55:06.124138,1096164,-5533,245,-441,37,-216,-293,89,403,-173
490,2,2022-09-15T20:55:06.131497,1096172,-5533,245,-441,37,-216,-293,89,403,-173
491,2,2022-09-15T20:55:06.136991,1096178,-5533,245,-441,37,-216,-293,89,403,-173
492,2,2022-09-15T20:55:06.142026,1096183,-5515,252,-455,-63,-92,-341,89,403,-173
493,2,2022-09-15T20:55:06.148984,1096188,-5515,252,-455,-63,-92,-341,89,403,-173
494,2,2022-09-15T20:55:06.155056,1096196,-5515,252,-455,-63,-92,-341,89,403,-173
495,2,2022-09-15T20:55:06.160376,1096201,-5515,252,-455,-63,-92,-341,89,403,-173
496,2,2022-09-15T20:55:06.165777,1096207,-5521,248,-469,-209,70,-368,89,403,-173
497,2,2022-09-15T20:55:06.171441,1096212,-5521,248,-469,-209,70,-368,89,403,-173
498,2,2022-09-15T20:55:06.178262,1096218,-5521,248,-469,-209,70,-368,89,403,-173
499,2,2022-09-15T20:55:06.183526,1096224,-5536,229,-472,-332,129,-435,89,403,-173
500,2,2022-09-15T20:55:06.190308,1096231,-5536,229,-472,-332,129,-435,89,403,-173
501,2,2022-09-15T20:55:06.196739,1096237,-5536,229,-472,-332,129,-435,89,403,-173
502,2,2022-09-15T20:55:06.203411,1096244,-5534,215,-482,-391,25,-541,89,403,-173
503,2,2022-09-15T20:55:06.209921,1096251,-5534,215,-482,-391,25,-541,89,403,-173
504,2,2022-09-15T20:55:06.216425,1096257,-5534,215,-482,-391,25,-541,89,403,-173
505,2,2022-09-15T20:55:06.222582,1096263,-5513,216,-487,-369,-97,-585,89,403,-173
506,2,2022-09-15T20:55:06.228396,1096268,-5513,216,-487,-369,-97,-585,89,403,-173
507,2,2022-09-15T20:55:06.233139,1096274,-5513,216,-487,-369,-97,-585,89,403,-173
508,2,2022-09-15T20:55:06.238429,1096280,-5513,216,-487,-369,-97,-585,89,403,-173
509,2,2022-09-15T20:55:06.243816,1096285,-5494,216,-477,-320,-136,-493,93,401,-175
510,2,2022-09-15T20:55:06.251142,1096292,-5494,216,-477,-320,-136,-493,93,401,-175
511,2,2022-09-15T20:55:06.258390,1096299,-5494,216,-477,-320,-136,-493,93,401,-175
512,2,2022-09-15T20:55:06.263758,1096305,-5502,204,-476,-224,-111,-326,93,401,-175
513,2,2022-09-15T20:55:06.269250,1096310,-5502,204,-476,-224,-111,-326,93,401,-175
514,2,2022-09-15T20:55:06.276184,1096315,-5502,204,-476,-224,-111,-326,93,401,-175
515,2,2022-09-15T20:55:06.281522,1096323,-5522,199,-477,-61,-90,-224,93,401,-175
516,2,2022-09-15T20:55:06.287408,1096328,-5522,199,-477,-61,-90,-224,93,401,-175
517,2,2022-09-15T20:55:06.293339,1096334,-5522,199,-477,-61,-90,-224,93,401,-175
518,2,2022-09-15T20:55:06.299963,1096340,-5522,199,-477,-61,-90,-224,93,401,-175
519,2,2022-09-15T20:55:06.305976,1096346,-5527,214,-481,70,-111,-241,93,401,-175
520,2,2022-09-15T20:55:06.312433,1096353,-5527,214,-481,70,-111,-241,93,401,-175
521,2,2022-09-15T20:55:06.317930,1096358,-5527,214,-481,70,-111,-241,93,401,-175
522,2,2022-09-15T20:55:06.323836,1096365,-5503,227,-478,134,-106,-125,93,401,-175
523,2,2022-09-15T20:55:06.329825,1096371,-5503,227,-478,134,-106,-125,93,401,-175
524,2,2022-09-15T20:55:06.335597,1096376,-5503,227,-478,134,-106,-125,93,401,-175
525,2,2022-09-15T20:55:06.340750,1096382,-5503,227,-478,134,-106,-125,93,401,-175
526,2,2022-09-15T20:55:06.346428,1096387,-5514,214,-465,247,-147,126,93,401,-175
527,2,2022-09-15T20:55:06.352534,1096393,-5514,214,-465,247,-147,126,93,401,-175
528,2,2022-09-15T20:55:06.359220,1096400,-5514,214,-465,247,-147,126,93,401,-175
529,2,2022-09-15T20:55:06.364970,1096406,-5525,201,-469,432,-208,209,92,394,-170
530,2,2022-09-15T20:55:06.370507,1096412,-5525,201,-469,432,-208,209,92,394,-170
531,2,2022-09-15T20:55:06.376925,1096417,-5525,201,-469,432,-208,209,92,394,-170
532,2,2022-09-15T20:55:06.382124,1096423,-5544,196,-457,558,-127,41,92,394,-170
533,2,2022-09-15T20:55:06.388727,1096430,-5544,196,-457,558,-127,41,92,394,-170
534,2,2022-09-15T20:55:06.395260,1096436,-5544,196,-457,558,-127,41,92,394,-170
535,2,2022-09-15T20:55:06.401837,1096441,-5544,196,-457,558,-127,41,92,394,-170
536,2,2022-09-15T20:55:06.407292,1096449,-5536,214,-452,640,-79,-158,92,394,-170
537,2,2022-09-15T20:55:06.412510,1096454,-5536,214,-452,640,-79,-158,92,394,-170
538,2,2022-09-15T20:55:06.418043,1096459,-5536,214,-452,640,-79,-158,92,394,-170
539,2,2022-09-15T20:55:06.423857,1096465,-5519,229,-451,684,-83,-200,92,394,-170
540,2,2022-09-15T20:55:06.429689,1096470,-5519,229,-451,684,-83,-200,92,394,-170
541,2,2022-09-15T20:55:06.435780,1096476,-5519,229,-451,684,-83,-200,92,394,-170
542,2,2022-09-15T20:55:06.442397,1096482,-5519,229,-451,684,-83,-200,92,394,-170
543,2,2022-09-15T20:55:06.448176,1096488,-5513,234,-449,695,-95,-86,92,394,-170
544,2,2022-09-15T20:55:06.454347,1096495,-5513,234,-449,695,-95,-86,92,394,-170
545,2,2022-09-15T20:55:06.460806,1096502,-5513,234,-449,695,-95,-86,92,394,-170
546,2,2022-09-15T20:55:06.467514,1096508,-5516,244,-453,652,-76,-23,92,394,-170
547,2,2022-09-15T20:55:06.478582,1096514,-5516,244,-453,652,-76,-23,92,394,-170
548,2,2022-09-15T20:55:06.484757,1096525,-5527,266,-454,530,21,33,92,394,-170
549,2,2022-09-15T20:55:06.490712,1096531,-5527,266,-454,530,21,33,92,394,-170
550,2,2022-09-15T20:55:06.498489,1096539,-5527,266,-454,530,21,33,92,394,-170
551,2,2022-09-15T20:55:06.504651,1096545,-5511,276,-442,363,38,190,92,386,-178
552,2,2022-09-15T20:55:06.509887,1096551,-5511,276,-442,363,38,190,92,386,-178
553,2,2022-09-15T20:55:06.518011,1096558,-5511,276,-442,363,38,190,92,386,-178
554,2,2022-09-15T20:55:06.524211,1096564,-5506,274,-446,226,-2,394,92,386,-178
555,2,2022-09-15T20:55:06.531170,1096571,-5506,274,-446,226,-2,394,92,386,-178
556,2,2022-09-15T20:55:06.537277,1096578,-5506,274,-446,226,-2,394,92,386,-178
557,2,2022-09-15T20:55:06.543798,1096584,-5531,247,-459,172,121,439,92,386,-178
558,2,2022-09-15T20:55:06.550145,1096590,-5531,247,-459,172,121,439,92,386,-178
559,2,2022-09-15T20:55:06.556384,1096597,-5531,247,-459,172,121,439,92,386,-178
560,2,2022-09-15T20:55:06.562321,1096603,-5547,241,-477,138,350,170,92,386,-178
561,2,2022-09-15T20:55:06.570564,1096610,-5547,241,-477,138,350,170,92,386,-178
562,2,2022-09-15T20:55:06.578769,1096617,-5547,241,-477,138,350,170,92,386,-178
563,2,2022-09-15T20:55:06.584351,1096626,-5539,259,-498,44,518,-221,92,386,-178
564,2,2022-09-15T20:55:06.590122,1096631,-5539,259,-498,44,518,-221,92,386,-178
565,2,2022-09-15T20:55:06.598264,1096639,-5539,259,-498,44,518,-221,92,386,-178
566,2,2022-09-15T20:55:06.603801,1096644,-5548,269,-489,-100,523,-387,92,386,-178
567,2,2022-09-15T20:55:06.609872,1096650,-5548,269,-489,-100,523,-387,92,386,-178
568,2,2022-09-15T20:55:06.616111,1096656,-5548,269,-489,-100,523,-387,92,386,-178
569,2,2022-09-15T20:55:06.621551,1096663,-5548,269,-489,-100,523,-387,92,386,-178
570,2,2022-09-15T20:55:06.628163,1096669,-5529,267,-497,-234,297,-295,99,395,-177
571,2,2022-09-15T20:55:06.633647,1096675,-5529,267,-497,-234,297,-295,99,395,-177
572,2,2022-09-15T20:55:06.638994,1096680,-5529,267,-497,-234,297,-295,99,395,-177
573,2,2022-09-15T20:55:06.644587,1096685,-5518,251,-514,-323,77,-217,99,395,-177
574,2,2022-09-15T20:55:06.651201,1096691,-5518,251,-514,-323,77,-217,99,395,-177
575,2,2022-09-15T20:55:06.658840,1096699,-5518,251,-514,-323,77,-217,99,395,-177
576,2,2022-09-15T20:55:06.664174,1096706,-5520,239,-521,-383,101,-301,99,395,-177
577,2,2022-09-15T20:55:06.670600,1096712,-5520,239,-521,-383,101,-301,99,395,-177
578,2,2022-09-15T20:55:06.676066,1096717,-5520,239,-521,-383,101,-301,99,395,-177
579,2,2022-09-15T20:55:06.681704,1096723,-5520,239,-521,-383,101,-301,99,395,-177
580,2,2022-09-15T20:55:06.687258,1096728,-5532,215,-522,-409,151,-361,99,395,-177
581,2,2022-09-15T20:55:06.692814,1096733,-5532,215,-522,-409,151,-361,99,395,-177
582,2,2022-09-15T20:55:06.699978,1096740,-5532,215,-522,-409,151,-361,99,395,-177
583,2,2022-09-15T20:55:06.705437,1096747,-5544,202,-516,-274,20,-352,99,395,-177
584,2,2022-09-15T20:55:06.711200,1096752,-5544,202,-516,-274,20,-352,99,395,-177
585,2,2022-09-15T20:55:06.716545,1096758,-5544,202,-516,-274,20,-352,99,395,-177
586,2,2022-09-15T20:55:06.722282,1096763,-5528,198,-510,-55,-200,-294,99,395,-177
587,2,2022-09-15T20:55:06.728820,1096769,-5528,198,-510,-55,-200,-294,99,395,-177
588,2,2022-09-15T20:55:06.733770,1096775,-5528,198,-510,-55,-200,-294,99,395,-177
589,2,2022-09-15T20:55:06.739915,1096781,-5528,198,-510,-55,-200,-294,99,395,-177
590,2,2022-09-15T20:55:06.746701,1096787,-5517,195,-496,171,-299,-244,96,394,-176
591,2,2022-09-15T20:55:06.753507,1096793,-5517,195,-496,171,-299,-244,96,394,-176
592,2,2022-09-15T20:55:06.758960,1096800,-5517,195,-496,171,-299,-244,96,394,-176
593,2,2022-09-15T20:55:06.764071,1096806,-5525,197,-489,384,-308,-193,96,394,-176
594,2,2022-09-15T20:55:06.770739,1096812,-5525,197,-489,384,-308,-193,96,394,-176
595,2,2022-09-15T20:55:06.777026,1096817,-5525,197,-489,384,-308,-193,96,394,-176
596,2,2022-09-15T20:55:06.782769,1096823,-5512,230,-496,537,-312,-172,96,394,-176
597,2,2022-09-15T20:55:06.787696,1096828,-5512,230,-496,537,-312,-172,96,394,-176
598,2,2022-09-15T20:55:06.792840,1096835,-5512,230,-496,537,-312,-172,96,394,-176
599,2,2022-09-15T20:55:06.799875,1096841,-5512,230,-496,537,-312,-172,96,394,-176
600,2,2022-09-15T20:55:06.804985,1096846,-5513,252,-488,553,-240,12,96,394,-176
601,2,2022-09-15T20:55:06.810331,1096852,-5513,252,-488,553,-240,12,96,394,-176
602,2,2022-09-15T20:55:06.816836,1096858,-5513,252,-488,553,-240,12,96,394,-176
603,2,2022-09-15T20:55:06.824011,1096863,-5527,257,-499,444,-183,251,96,394,-176
604,2,2022-09-15T20:55:06.829884,1096870,-5527,257,-499,444,-183,251,96,394,-176
605,2,2022-09-15T20:55:06.836634,1096878,-5527,257,-499,444,-183,251,96,394,-176
606,2,2022-09-15T20:55:06.841828,1096883,-5527,257,-499,444,-183,251,96,394,-176
607,2,2022-09-15T20:55:06.847744,1096888,-5552,246,-486,271,-130,401,96,394,-176
608,2,2022-09-15T20:55:06.854231,1096894,-5552,246,-486,271,-130,401,96,394,-176
609,2,2022-09-15T20:55:06.860809,1096902,-5552,246,-486,271,-130,401,96,394,-176
610,2,2022-09-15T20:55:06.866325,1096907,-5558,243,-477,133,-178,398,94,398,-178
611,2,2022-09-15T20:55:06.872073,1096912,-5558,243,-477,133,-178,398,94,398,-178
612,2,2022-09-15T20:55:06.878243,1096919,-5558,243,-477,133,-178,398,94,398,-178
613,2,2022-09-15T20:55:06.884345,1096925,-5522,232,-484,59,-319,219,94,398,-178
614,2,2022-09-15T20:55:06.889672,1096931,-5522,232,-484,59,-319,219,94,398,-178
615,2,2022-09-15T20:55:06.896395,1096937,-5522,232,-484,59,-319,219,94,398,-178
616,2,2022-09-15T20:55:06.902322,1096943,-5517,224,-487,34,-304,49,94,398,-178
617,2,2022-09-15T20:55:06.907787,1096948,-5517,224,-487,34,-304,49,94,398,-178
618,2,2022-09-15T20:55:06.912822,1096954,-5517,224,-487,34,-304,49,94,398,-178
619,2,2022-09-15T20:55:06.919136,1096961,-5517,224,-487,34,-304,49,94,398,-178
620,2,2022-09-15T20:55:06.926797,1096968,-5521,227,-487,-12,-237,-122,94,398,-178
621,2,2022-09-15T20:55:06.932527,1096974,-5521,227,-487,-12,-237,-122,94,398,-178
622,2,2022-09-15T20:55:06.937574,1096979,-5521,227,-487,-12,-237,-122,94,398,-178
623,2,2022-09-15T20:55:06.942639,1096984,-5528,237,-478,-79,-179,-144,94,398,-178
624,2,2022-09-15T20:55:06.948716,1096989,-5528,237,-478,-79,-179,-144,94,398,-178
625,2,2022-09-15T20:55:06.955198,1096996,-5528,237,-478,-79,-179,-144,94,398,-178
626,2,2022-09-15T20:55:06.961829,1097004,-5528,237,-478,-79,-179,-144,94,398,-178
627,2,2022-09-15T20:55:06.966726,1097008,-5533,239,-479,-185,-153,-25,94,398,-178
628,2,2022-09-15T20:55:06.972589,1097014,-5533,239,-479,-185,-153,-25,94,398,-178
629,2,2022-09-15T20:55:06.980496,1097021,-5533,239,-479,-185,-153,-25,94,398,-178
630,2,2022-09-15T20:55:06.986148,1097027,-5532,227,-482,-257,-127,101,102,394,-172
631,2,2022-09-15T20:55:06.991634,1097032,-5532,227,-482,-257,-127,101,102,394,-172
632,2,2022-09-15T20:55:06.997836,1097038,-5532,227,-482,-257,-127,101,102,394,-172
633,2,2022-09-15T20:55:07.004233,1097046,-5532,227,-482,-257,-127,101,102,394,-172
634,2,2022-09-15T20:55:07.009806,1097051,-5532,227,-482,-257,-127,101,102,394,-172
635,2,2022-09-15T20:55:07.015082,1097056,-5532,227,-482,-257,-127,101,102,394,-172
636,2,2022-09-15T20:55:07.020775,1097062,-5532,227,-482,-257,-127,101,102,394,-172
637,2,2022-09-15T20:55:07.027750,1097067,-5515,233,-481,-133,-133,63,102,394,-172
638,2,2022-09-15T20:55:07.033573,1097074,-5515,233,-481,-133,-133,63,102,394,-172
639,2,2022-09-15T20:55:07.039831,1097081,-5515,233,-481,-133,-133,63,102,394,-172
640,2,2022-09-15T20:55:07.046568,1097088,-5510,254,-479,-56,-40,112,102,394,-172
641,2,2022-09-15T20:55:07.052843,1097093,-5510,254,-479,-56,-40,112,102,394,-172
642,2,2022-09-15T20:55:07.058683,1097100,-5510,254,-479,-56,-40,112,102,394,-172
643,2,2022-09-15T20:55:07.063852,1097105,-5504,269,-478,-94,12,174,102,394,-172
644,2,2022-09-15T20:55:07.070485,1097111,-5504,269,-478,-94,12,174,102,394,-172
645,2,2022-09-15T20:55:07.077992,1097118,-5504,269,-478,-94,12,174,102,394,-172
646,2,2022-09-15T20:55:07.083346,1097124,-5496,279,-488,-216,45,195,102,394,-172
647,2,2022-09-15T20:55:07.089013,1097129,-5496,279,-488,-216,45,195,102,394,-172
648,2,2022-09-15T20:55:07.093955,1097136,-5496,279,-488,-216,45,195,102,394,-172
649,2,2022-09-15T20:55:07.101381,1097142,-5496,279,-488,-216,45,195,102,394,-172
650,2,2022-09-15T20:55:07.108686,1097150,-5516,275,-495,-350,124,213,102,394,-172
651,2,2022-09-15T20:55:07.114340,1097155,-5516,275,-495,-350,124,213,102,394,-172
652,2,2022-09-15T20:55:07.120903,1097162,-5516,275,-495,-350,124,213,102,394,-172
653,2,2022-09-15T20:55:07.128364,1097169,-5519,270,-493,-447,167,127,101,397,-171
654,2,2022-09-15T20:55:07.133677,1097175,-5519,270,-493,-447,167,127,101,397,-171
655,2,2022-09-15T20:55:07.139820,1097182,-5519,270,-493,-447,167,127,101,397,-171
656,2,2022-09-15T20:55:07.147140,1097188,-5523,262,-511,-502,185,-12,101,397,-171
657,2,2022-09-15T20:55:07.153447,1097194,-5523,262,-511,-502,185,-12,101,397,-171
658,2,2022-09-15T20:55:07.159408,1097200,-5523,262,-511,-502,185,-12,101,397,-171
659,2,2022-09-15T20:55:07.164731,1097205,-5527,251,-522,-493,169,-116,101,397,-171
660,2,2022-09-15T20:55:07.171677,1097212,-5527,251,-522,-493,169,-116,101,397,-171
661,2,2022-09-15T20:55:07.179358,1097221,-5527,251,-522,-493,169,-116,101,397,-171
662,2,2022-09-15T20:55:07.184829,1097226,-5540,243,-529,-430,139,-258,101,397,-171
663,2,2022-09-15T20:55:07.190708,1097231,-5540,243,-529,-430,139,-258,101,397,-171
664,2,2022-09-15T20:55:07.196301,1097237,-5540,243,-529,-430,139,-258,101,397,-171
665,2,2022-09-15T20:55:07.202163,1097243,-5540,243,-529,-430,139,-258,101,397,-171
666,2,2022-09-15T20:55:07.208016,1097248,-5550,250,-524,-347,96,-265,101,397,-171
667,2,2022-09-15T20:55:07.213414,1097254,-5550,250,-524,-347,96,-265,101,397,-171
668,2,2022-09-15T20:55:07.218992,1097260,-5550,250,-524,-347,96,-265,101,397,-171
669,2,2022-09-15T20:55:07.225051,1097266,-5552,256,-521,-261,-28,-203,101,397,-171
670,2,2022-09-15T20:55:07.230895,1097272,-5552,256,-521,-261,-28,-203,101,397,-171
671,2,2022-09-15T20:55:07.237700,1097279,-5552,256,-521,-261,-28,-203,101,397,-171
672,2,2022-09-15T20:55:07.242884,1097284,-5543,252,-512,-226,-176,-121,93,395,-177
673,2,2022-09-15T20:55:07.249491,1097289,-5543,252,-512,-226,-176,-121,93,395,-177
674,2,2022-09-15T20:55:07.255339,1097296,-5543,252,-512,-226,-176,-121,93,395,-177
675,2,2022-09-15T20:55:07.261889,1097304,-5543,252,-512,-226,-176,-121,93,395,-177
676,2,2022-09-15T20:55:07.267746,1097309,-5533,255,-507,-270,-287,-186,93,395,-177
677,2,2022-09-15T20:55:07.273912,1097314,-5533,255,-507,-270,-287,-186,93,395,-177
678,2,2022-09-15T20:55:07.281792,1097323,-5533,255,-507,-270,-287,-186,93,395,-177
679,2,2022-09-15T20:55:07.287015,1097328,-5549,254,-499,-315,-332,-177,93,395,-177
680,2,2022-09-15T20:55:07.292338,1097333,-5549,254,-499,-315,-332,-177,93,395,-177
681,2,2022-09-15T20:55:07.298369,1097338,-5549,254,-499,-315,-332,-177,93,395,-177
682,2,2022-09-15T20:55:07.304797,1097346,-5535,245,-498,-308,-486,-177,93,395,-177
683,2,2022-09-15T20:55:07.310475,1097352,-5535,245,-498,-308,-486,-177,93,395,-177
684,2,2022-09-15T20:55:07.315921,1097357,-5535,245,-498,-308,-486,-177,93,395,-177
685,2,2022-09-15T20:55:07.321948,1097362,-5535,245,-498,-308,-486,-177,93,395,-177
686,2,2022-09-15T20:55:07.328300,1097368,-5514,238,-495,-311,-552,-220,93,395,-177
687,2,2022-09-15T20:55:07.333977,1097374,-5514,238,-495,-311,-552,-220,93,395,-177
688,2,2022-09-15T20:55:07.339709,1097380,-5514,238,-495,-311,-552,-220,93,395,-177
689,2,2022-09-15T20:55:07.345012,1097387,-5504,238,-485,-299,-465,-263,93,395,-177
690,2,2022-09-15T20:55:07.353005,1097393,-5504,238,-485,-299,-465,-263,93,395,-177
691,2,2022-09-15T20:55:07.358464,1097400,-5504,238,-485,-299,-465,-263,93,395,-177
692,2,2022-09-15T20:55:07.363462,1097405,-5510,253,-479,-273,-344,-217,91,401,-177
693,2,2022-09-15T20:55:07.369358,1097410,-5510,253,-479,-273,-344,-217,91,401,-177
694,2,2022-09-15T20:55:07.375416,1097415,-5510,253,-479,-273,-344,-217,91,401,-177
695,2,2022-09-15T20:55:07.382324,1097423,-5508,263,-475,-269,-275,-93,91,401,-177
696,2,2022-09-15T20:55:07.387445,1097428,-5508,263,-475,-269,-275,-93,91,401,-177
697,2,2022-09-15T20:55:07.392805,1097434,-5508,263,-475,-269,-275,-93,91,401,-177
698,2,2022-09-15T20:55:07.400226,1097441,-5508,263,-475,-269,-275,-93,91,401,-177
699,2,2022-09-15T20:55:07.407778,1097449,-5504,265,-489,-370,-151,18,91,401,-177
700,2,2022-09-15T20:55:07.413443,1097454,-5504,265,-489,-370,-151,18,91,401,-177
701,2,2022-09-15T20:55:07.418648,1097460,-5504,265,-489,-370,-151,18,91,401,-177
702,2,2022-09-15T20:55:07.424602,1097465,-5503,270,-492,-520,5,48,91,401,-177
703,2,2022-09-15T20:55:07.430111,1097472,-5503,270,-492,-520,5,48,91,401,-177
704,2,2022-09-15T20:55:07.435427,1097477,-5503,270,-492,-520,5,48,91,401,-177
705,2,2022-09-15T20:55:07.440616,1097482,-5503,270,-492,-520,5,48,91,401,-177
706,2,2022-09-15T20:55:07.447229,1097488,-5517,270,-502,-676,96,51,91,401,-177
707,2,2022-09-15T20:55:07.453831,1097494,-5517,270,-502,-676,96,51,91,401,-177
708,2,2022-09-15T20:55:07.460462,1097501,-5517,270,-502,-676,96,51,91,401,-177
709,2,2022-09-15T20:55:07.466811,1097508,-5530,257,-516,-760,88,113,91,401,-177
710,2,2022-09-15T20:55:07.472681,1097513,-5530,257,-516,-760,88,113,91,401,-177
711,2,2022-09-15T20:55:07.479591,1097520,-5530,257,-516,-760,88,113,91,401,-177
712,2,2022-09-15T20:55:07.484693,1097526,-5536,239,-514,-775,8,135,89,401,-183
713,2,2022-09-15T20:55:07.490295,1097531,-5536,239,-514,-775,8,135,89,401,-183
714,2,2022-09-15T20:55:07.496815,1097538,-5536,239,-514,-775,8,135,89,401,-183
715,2,2022-09-15T20:55:07.502462,1097543,-5536,239,-514,-775,8,135,89,401,-183
716,2,2022-09-15T20:55:07.508063,1097548,-5531,233,-521,-706,-50,110,89,401,-183
717,2,2022-09-15T20:55:07.513473,1097554,-5531,233,-521,-706,-50,110,89,401,-183
718,2,2022-09-15T20:55:07.518764,1097560,-5531,233,-521,-706,-50,110,89,401,-183
719,2,2022-09-15T20:55:07.524855,1097566,-5530,238,-508,-578,-72,83,89,401,-183
720,2,2022-09-15T20:55:07.531021,1097572,-5530,238,-508,-578,-72,83,89,401,-183
721,2,2022-09-15T20:55:07.537667,1097579,-5530,238,-508,-578,-72,83,89,401,-183
722,2,2022-09-15T20:55:07.543285,1097584,-5524,245,-504,-412,-110,72,89,401,-183
723,2,2022-09-15T20:55:07.549604,1097590,-5524,245,-504,-412,-110,72,89,401,-183
724,2,2022-09-15T20:55:07.555446,1097596,-5524,245,-504,-412,-110,72,89,401,-183
725,2,2022-09-15T20:55:07.562049,1097604,-5524,245,-504,-412,-110,72,89,401,-183
726,2,2022-09-15T20:55:07.568167,1097609,-5517,257,-508,-265,-129,115,89,401,-183
727,2,2022-09-15T20:55:07.574593,1097615,-5517,257,-508,-265,-129,115,89,401,-183
728,2,2022-09-15T20:55:07.582035,1097623,-5517,257,-508,-265,-129,115,89,401,-183
729,2,2022-09-15T20:55:07.588586,1097629,-5525,266,-501,-164,-81,179,89,401,-183
730,2,2022-09-15T20:55:07.594099,1097635,-5525,266,-501,-164,-81,179,89,401,-183
731,2,2022-09-15T20:55:07.601613,1097641,-5525,266,-501,-164,-81,179,89,401,-183
732,2,2022-09-15T20:55:07.607218,1097649,-5525,274,-508,-85,-24,227,83,403,-183
733,2,2022-09-15T20:55:07.612955,1097654,-5525,274,-508,-85,-24,227,83,403,-183
734,2,2022-09-15T20:55:07.618312,1097660,-5525,274,-508,-85,-24,227,83,403,-183
735,2,2022-09-15T20:55:07.624098,1097665,-5531,275,-505,-49,79,277,83,403,-183
736,2,2022-09-15T20:55:07.630254,1097671,-5531,275,-505,-49,79,277,83,403,-183
737,2,2022-09-15T20:55:07.635643,1097677,-5531,275,-505,-49,79,277,83,403,-183
738,2,2022-09-15T20:55:07.642063,1097683,-5531,275,-505,-49,79,277,83,403,-183
739,2,2022-09-15T20:55:07.649067,1097690,-5528,275,-512,-53,119,195,83,403,-183
740,2,2022-09-15T20:55:07.655681,1097696,-5528,275,-512,-53,119,195,83,403,-183
741,2,2022-09-15T20:55:07.660995,1097702,-5528,275,-512,-53,119,195,83,403,-183
742,2,2022-09-15T20:55:07.666725,1097708,-5528,267,-525,-42,142,74,83,403,-183
743,2,2022-09-15T20:55:07.672163,1097713,-5528,267,-525,-42,142,74,83,403,-183
744,2,2022-09-15T20:55:07.679950,1097721,-5528,267,-525,-42,142,74,83,403,-183
745,2,2022-09-15T20:55:07.685759,1097726,-5530,265,-531,-45,180,-67,83,403,-183
746,2,2022-09-15T20:55:07.691723,1097733,-5530,265,-531,-45,180,-67,83,403,-183
747,2,2022-09-15T20:55:07.699707,1097740,-5530,265,-531,-45,180,-67,83,403,-183
748,2,2022-09-15T20:55:07.705295,1097746,-5532,258,-538,-92,196,-231,83,403,-183
749,2,2022-09-15T20:55:07.711819,1097753,-5532,258,-538,-92,196,-231,83,403,-183
750,2,2022-09-15T20:55:07.718469,1097759,-5532,258,-538,-92,196,-231,83,403,-183
751,2,2022-09-15T20:55:07.724711,1097765,-5541,240,-544,-129,198,-381,83,403,-183
752,2,2022-09-15T20:55:07.730844,1097772,-5541,240,-544,-129,198,-381,83,403,-183
753,2,2022-09-15T20:55:07.736090,1097778,-5541,240,-544,-129,198,-381,83,403,-183
754,2,2022-09-15T20:55:07.741165,1097783,-5541,240,-544,-129,198,-381,83,403,-183
755,2,2022-09-15T20:55:07.746805,1097788,-5550,235,-544,-136,144,-490,91,397,-185
756,2,2022-09-15T20:55:07.753121,1097794,-5550,235,-544,-136,144,-490,91,397,-185
757,2,2022-09-15T20:55:07.760648,1097801,-5550,235,-544,-136,144,-490,91,397,-185
758,2,2022-09-15T20:55:07.766609,1097807,-5546,229,-543,-126,59,-561,91,397,-185
759,2,2022-09-15T20:55:07.772556,1097814,-5546,229,-543,-126,59,-561,91,397,-185
760,2,2022-09-15T20:55:07.780158,1097821,-5546,229,-543,-126,59,-561,91,397,-185
761,2,2022-09-15T20:55:07.785868,1097827,-5538,231,-542,-140,-39,-550,91,397,-185
762,2,2022-09-15T20:55:07.791251,1097832,-5538,231,-542,-140,-39,-550,91,397,-185
763,2,2022-09-15T20:55:07.797075,1097838,-5538,231,-542,-140,-39,-550,91,397,-185
764,2,2022-09-15T20:55:07.803183,1097844,-5538,231,-542,-140,-39,-550,91,397,-185
765,2,2022-09-15T20:55:07.808652,1097849,-5545,228,-540,-168,-161,-448,91,397,-185
766,2,2022-09-15T20:55:07.814647,1097856,-5545,228,-540,-168,-161,-448,91,397,-185
767,2,2022-09-15T20:55:07.821483,1097863,-5545,228,-540,-168,-161,-448,91,397,-185
768,2,2022-09-15T20:55:07.829389,1097870,-5541,235,-538,-195,-241,-330,91,397,-185
769,2,2022-09-15T20:55:07.835187,1097876,-5541,235,-538,-195,-241,-330,91,397,-185
770,2,2022-09-15T20:55:07.840510,1097882,-5541,235,-538,-195,-241,-330,91,397,-185
771,2,2022-09-15T20:55:07.845678,1097887,-5533,240,-538,-274,-227,-195,91,397,-185
772,2,2022-09-15T20:55:07.851668,1097892,-5533,240,-538,-274,-227,-195,91,397,-185
773,2,2022-09-15T20:55:07.857776,1097899,-5533,240,-538,-274,-227,-195,91,397,-185
774,2,2022-09-15T20:55:07.863339,1097905,-5533,240,-532,-343,-204,-40,92,398,-182
775,2,2022-09-15T20:55:07.868676,1097910,-5533,240,-532,-343,-204,-40,92,398,-182
776,2,2022-09-15T20:55:07.874860,1097916,-5533,240,-532,-343,-204,-40,92,398,-182
777,2,2022-09-15T20:55:07.880531,1097922,-5533,240,-532,-343,-204,-40,92,398,-182
778,2,2022-09-15T20:55:07.885599,1097927,-5525,235,-540,-374,-250,67,92,398,-182
779,2,2022-09-15T20:55:07.891187,1097932,-5525,235,-540,-374,-250,67,92,398,-182
780,2,2022-09-15T20:55:07.899220,1097939,-5525,235,-540,-374,-250,67,92,398,-182
781,2,2022-09-15T20:55:07.905120,1097946,-5515,246,-539,-370,-261,109,92,398,-182
782,2,2022-09-15T20:55:07.911054,1097952,-5515,246,-539,-370,-261,109,92,398,-182
783,2,2022-09-15T20:55:07.916720,1097958,-5515,246,-539,-370,-261,109,92,398,-182
784,2,2022-09-15T20:55:07.922484,1097963,-5515,246,-539,-370,-261,109,92,398,-182
785,2,2022-09-15T20:55:07.929730,1097970,-5518,229,-540,-328,-253,134,92,398,-182
786,2,2022-09-15T20:55:07.935689,1097976,-5518,229,-540,-328,-253,134,92,398,-182
787,2,2022-09-15T20:55:07.941977,1097984,-5518,229,-540,-328,-253,134,92,398,-182
788,2,2022-09-15T20:55:07.948817,1097990,-5548,217,-525,-198,-303,100,92,398,-182
789,2,2022-09-15T20:55:07.954328,1097996,-5548,217,-525,-198,-303,100,92,398,-182
790,2,2022-09-15T20:55:07.959930,1098001,-5548,217,-525,-198,-303,100,92,398,-182
791,2,2022-09-15T20:55:07.965483,1098007,-5568,213,-522,2,-456,3,92,398,-182
792,2,2022-09-15T20:55:07.970782,1098012,-5568,213,-522,2,-456,3,92,398,-182
793,2,2022-09-15T20:55:07.976162,1098017,-5568,213,-522,2,-456,3,92,398,-182
794,2,2022-09-15T20:55:07.981458,1098022,-5568,213,-522,2,-456,3,92,398,-182
795,2,2022-09-15T20:55:07.987884,1098030,-5531,239,-519,209,-599,-143,91,401,-179
796,2,2022-09-15T20:55:07.994076,1098035,-5531,239,-519,209,-599,-143,91,401,-179
797,2,2022-09-15T20:55:08.000658,1098041,-5531,239,-519,209,-599,-143,91,401,-179
798,2,2022-09-15T20:55:08.006584,1098047,-5524,260,-517,279,-526,-146,91,401,-179
799,2,2022-09-15T20:55:08.012160,1098053,-5524,260,-517,279,-526,-146,91,401,-179
800,2,2022-09-15T20:55:08.018685,1098060,-5524,260,-517,279,-526,-146,91,401,-179
801,2,2022-09-15T20:55:08.024186,1098065,-5529,267,-510,228,-445,-112,91,401,-179
802,2,2022-09-15T20:55:08.031087,1098072,-5529,267,-510,228,-445,-112,91,401,-179
803,2,2022-09-15T20:55:08.036572,1098078,-5529,267,-510,228,-445,-112,91,401,-179
804,2,2022-09-15T20:55:08.041465,1098083,-5529,267,-510,228,-445,-112,91,401,-179
805,2,2022-09-15T20:55:08.047146,1098088,-5533,273,-502,112,-474,-20,91,401,-179
806,2,2022-09-15T20:55:08.053719,1098094,-5533,273,-502,112,-474,-20,91,401,-179
807,2,2022-09-15T20:55:08.061168,1098102,-5533,273,-502,112,-474,-20,91,401,-179
808,2,2022-09-15T20:55:08.066772,1098107,-5506,271,-501,33,-564,62,91,401,-179
809,2,2022-09-15T20:55:08.072469,1098114,-5506,271,-501,33,-564,62,91,401,-179
810,2,2022-09-15T20:55:08.079816,1098121,-5506,271,-501,33,-564,62,91,401,-179
811,2,2022-09-15T20:55:08.085386,1098126,-5487,274,-509,-26,-564,151,91,401,-179
812,2,2022-09-15T20:55:08.090776,1098132,-5487,274,-509,-26,-564,151,91,401,-179
813,2,2022-09-15T20:55:08.097833,1098138,-5487,274,-509,-26,-564,151,91,401,-179
814,2,2022-09-15T20:55:08.103934,1098145,-5478,279,-514,-56,-438,180,91,401,-183
815,2,2022-09-15T20:55:08.109482,1098150,-5478,279,-514,-56,-438,180,91,401,-183
816,2,2022-09-15T20:55:08.114840,1098157,-5478,279,-514,-56,-438,180,91,401,-183
817,2,2022-09-15T20:55:08.120969,1098163,-5478,279,-514,-56,-438,180,91,401,-183
818,2,2022-09-15T20:55:08.127162,1098168,-5490,295,-523,-131,-232,248,91,401,-183
819,2,2022-09-15T20:55:08.132767,1098174,-5490,295,-523,-131,-232,248,91,401,-183
820,2,2022-09-15T20:55:08.139237,1098181,-5490,295,-523,-131,-232,248,91,401,-183
821,2,2022-09-15T20:55:08.144666,1098185,-5515,289,-516,-235,-111,338,91,401,-183
822,2,2022-09-15T20:55:08.151866,1098192,-5515,289,-516,-235,-111,338,91,401,-183
823,2,2022-09-15T20:55:08.159363,1098201,-5515,289,-516,-235,-111,338,91,401,-183
824,2,2022-09-15T20:55:08.164593,1098206,-5526,291,-525,-357,-136,327,91,401,-183
825,2,2022-09-15T20:55:08.170525,1098212,-5526,291,-525,-357,-136,327,91,401,-183
826,2,2022-09-15T20:55:08.176881,1098218,-5526,291,-525,-357,-136,327,91,401,-183
827,2,2022-09-15T20:55:08.182440,1098223,-5526,291,-525,-357,-136,327,91,401,-183
828,2,2022-09-15T20:55:08.187751,1098228,-5539,282,-523,-473,-142,266,91,401,-183
829,2,2022-09-15T20:55:08.193310,1098234,-5539,282,-523,-473,-142,266,91,401,-183
830,2,2022-09-15T20:55:08.199292,1098240,-5539,282,-523,-473,-142,266,91,401,-183
831,2,2022-09-15T20:55:08.205272,1098247,-5545,274,-524,-523,-150,256,91,401,-183
832,2,2022-09-15T20:55:08.210992,1098252,-5545,274,-524,-523,-150,256,91,401,-183
833,2,2022-09-15T20:55:08.216309,1098258,-5545,274,-524,-523,-150,256,91,401,-183
834,2,2022-09-15T20:55:08.221690,1098263,-5545,274,-524,-523,-150,256,91,401,-183
835,2,2022-09-15T20:55:08.228164,1098268,-5544,269,-520,-482,-239,230,91,399,-183
836,2,2022-09-15T20:55:08.233749,1098275,-5544,269,-520,-482,-239,230,91,399,-183
837,2,2022-09-15T20:55:08.239459,1098280,-5544,269,-520,-482,-239,230,91,399,-183
838,2,2022-09-15T20:55:08.244845,1098287,-5527,276,-519,-388,-267,180,91,399,-183
839,2,2022-09-15T20:55:08.251556,1098292,-5527,276,-519,-388,-267,180,91,399,-183
840,2,2022-09-15T20:55:08.257609,1098299,-5527,276,-519,-388,-267,180,91,399,-183
841,2,2022-09-15T20:55:08.263076,1098304,-5527,276,-519,-388,-267,180,91,399,-183
842,2,2022-09-15T20:55:08.268422,1098309,-5526,280,-529,-304,-154,232,91,399,-183
843,2,2022-09-15T20:55:08.275710,1098315,-5526,280,-529,-304,-154,232,91,399,-183
844,2,2022-09-15T20:55:08.281656,1098322,-5526,280,-529,-304,-154,232,91,399,-183
845,2,2022-09-15T20:55:08.287919,1098330,-5535,284,-530,-222,-18,278,91,399,-183
846,2,2022-09-15T20:55:08.293335,1098335,-5535,284,-530,-222,-18,278,91,399,-183
847,2,2022-09-15T20:55:08.300877,1098341,-5535,284,-530,-222,-18,278,91,399,-183
848,2,2022-09-15T20:55:08.306827,1098348,-5533,292,-535,-183,72,286,91,399,-183
849,2,2022-09-15T20:55:08.312011,1098353,-5533,292,-535,-183,72,286,91,399,-183
850,2,2022-09-15T20:55:08.318588,1098360,-5533,292,-535,-183,72,286,91,399,-183
851,2,2022-09-15T20:55:08.324255,1098365,-5547,292,-532,-211,116,237,91,399,-183
852,2,2022-09-15T20:55:08.330054,1098371,-5547,292,-532,-211,116,237,91,399,-183
853,2,2022-09-15T20:55:08.335438,1098377,-5547,292,-532,-211,116,237,91,399,-183
854,2,2022-09-15T20:55:08.340625,1098382,-5547,292,-532,-211,116,237,91,399,-183
855,2,2022-09-15T20:55:08.345953,1098387,-5554,290,-522,-279,2,39,91,399,-183
856,2,2022-09-15T20:55:08.352314,1098392,-5554,290,-522,-279,2,39,91,399,-183
857,2,2022-09-15T20:55:08.357657,1098398,-5554,290,-522,-279,2,39,91,399,-183
858,2,2022-09-15T20:55:08.363122,1098404,-5554,290,-522,-279,2,39,91,399,-183
859,2,2022-09-15T20:55:08.369825,1098411,-5557,272,-527,-388,-155,-218,80,406,-186
860,2,2022-09-15T20:55:08.376461,1098417,-5557,272,-527,-388,-155,-218,80,406,-186
861,2,2022-09-15T20:55:08.381920,1098423,-5557,272,-527,-388,-155,-218,80,406,-186
862,2,2022-09-15T20:55:08.388166,1098430,-5539,252,-534,-434,-290,-518,80,406,-186
863,2,2022-09-15T20:55:08.393605,1098435,-5539,252,-534,-434,-290,-518,80,406,-186
864,2,2022-09-15T20:55:08.400095,1098441,-5539,252,-534,-434,-290,-518,80,406,-186
865,2,2022-09-15T20:55:08.405444,1098446,-5525,243,-547,-439,-336,-715,80,406,-186
866,2,2022-09-15T20:55:08.410903,1098451,-5525,243,-547,-439,-336,-715,80,406,-186
867,2,2022-09-15T20:55:08.416054,1098458,-5525,243,-547,-439,-336,-715,80,406,-186
868,2,2022-09-15T20:55:08.422773,1098464,-5525,243,-547,-439,-336,-715,80,406,-186
869,2,2022-09-15T20:55:08.428140,1098469,-5517,223,-540,-352,-413,-876,80,406,-186
870,2,2022-09-15T20:55:08.434030,1098475,-5517,223,-540,-352,-413,-876,80,406,-186
871,2,2022-09-15T20:55:08.440576,1098482,-5517,223,-540,-352,-413,-876,80,406,-186
872,2,2022-09-15T20:55:08.446323,1098487,-5525,211,-539,-227,-439,-893,80,406,-186
873,2,2022-09-15T20:55:08.452761,1098493,-5525,211,-539,-227,-439,-893,80,406,-186
874,2,2022-09-15T20:55:08.458259,1098500,-5525,211,-539,-227,-439,-893,80,406,-186
875,2,2022-09-15T20:55:08.463562,1098505,-5534,203,-544,-42,-458,-816,80,406,-186
876,2,2022-09-15T20:55:08.469521,1098511,-5534,203,-544,-42,-458,-816,80,406,-186
877,2,2022-09-15T20:55:08.475098,1098516,-5534,203,-544,-42,-458,-816,80,406,-186
878,2,2022-09-15T20:55:08.482077,1098523,-5534,203,-544,-42,-458,-816,80,406,-186
879,2,2022-09-15T20:55:08.487438,1098528,-5546,210,-514,160,-567,-622,94,398,-176
880,2,2022-09-15T20:55:08.493040,1098534,-5546,210,-514,160,-567,-622,94,398,-176
881,2,2022-09-15T20:55:08.498406,1098540,-5546,210,-514,160,-567,-622,94,398,-176
882,2,2022-09-15T20:55:08.503840,1098545,-5534,226,-510,334,-684,-363,94,398,-176
883,2,2022-09-15T20:55:08.509302,1098551,-5534,226,-510,334,-684,-363,94,398,-176
884,2,2022-09-15T20:55:08.514636,1098556,-5534,226,-510,334,-684,-363,94,398,-176
885,2,2022-09-15T20:55:08.521109,1098563,-5534,226,-510,334,-684,-363,94,398,-176
886,2,2022-09-15T20:55:08.527994,1098568,-5527,236,-498,417,-716,-69,94,398,-176
887,2,2022-09-15T20:55:08.534069,1098575,-5527,236,-498,417,-716,-69,94,398,-176
888,2,2022-09-15T20:55:08.538987,1098580,-5527,236,-498,417,-716,-69,94,398,-176
889,2,2022-09-15T20:55:08.543963,1098586,-5542,232,-492,415,-694,122,94,398,-176
890,2,2022-09-15T20:55:08.552528,1098593,-5542,232,-492,415,-694,122,94,398,-176
891,2,2022-09-15T20:55:08.559873,1098601,-5542,232,-492,415,-694,122,94,398,-176
892,2,2022-09-15T20:55:08.566118,1098607,-5514,233,-484,406,-669,109,94,398,-176
893,2,2022-09-15T20:55:08.571289,1098612,-5514,233,-484,406,-669,109,94,398,-176
894,2,2022-09-15T20:55:08.578451,1098619,-5514,233,-484,406,-669,109,94,398,-176
895,2,2022-09-15T20:55:08.583805,1098625,-5517,235,-476,431,-521,149,94,398,-176
896,2,2022-09-15T20:55:08.590197,1098632,-5517,235,-476,431,-521,149,94,398,-176
897,2,2022-09-15T20:55:08.595308,1098637,-5517,235,-476,431,-521,149,94,398,-176
898,2,2022-09-15T20:55:08.602899,1098644,-5517,235,-476,431,-521,149,94,398,-176
899,2,2022-09-15T20:55:08.610077,1098651,-5519,243,-470,477,-477,68,89,399,-177
900,2,2022-09-15T20:55:08.615467,1098656,-5519,243,-470,477,-477,68,89,399,-177
901,2,2022-09-15T20:55:08.621196,1098662,-5519,243,-470,477,-477,68,89,399,-177
902,2,2022-09-15T20:55:08.627756,1098668,-5498,254,-474,494,-427,-7,89,399,-177
903,2,2022-09-15T20:55:08.633799,1098675,-5498,254,-474,494,-427,-7,89,399,-177
904,2,2022-09-15T20:55:08.640290,1098682,-5498,254,-474,494,-427,-7,89,399,-177
905,2,2022-09-15T20:55:08.645962,1098687,-5497,271,-494,430,-274,-68,89,399,-177
906,2,2022-09-15T20:55:08.652271,1098692,-5497,271,-494,430,-274,-68,89,399,-177
907,2,2022-09-15T20:55:08.658506,1098699,-5497,271,-494,430,-274,-68,89,399,-177
908,2,2022-09-15T20:55:08.663700,1098705,-5528,267,-486,286,-57,26,89,399,-177
909,2,2022-09-15T20:55:08.669726,1098710,-5528,267,-486,286,-57,26,89,399,-177
910,2,2022-09-15T20:55:08.675628,1098717,-5528,267,-486,286,-57,26,89,399,-177
911,2,2022-09-15T20:55:08.682239,1098724,-5528,267,-486,286,-57,26,89,399,-177
912,2,2022-09-15T20:55:08.687735,1098729,-5551,264,-492,143,-51,133,89,399,-177
913,2,2022-09-15T20:55:08.692974,1098734,-5551,264,-492,143,-51,133,89,399,-177
914,2,2022-09-15T20:55:08.700277,1098741,-5551,264,-492,143,-51,133,89,399,-177
915,2,2022-09-15T20:55:08.706023,1098747,-5551,264,-492,143,-51,133,89,399,-177
916,2,2022-09-15T20:55:08.711541,1098753,-5551,264,-492,143,-51,133,89,399,-177
917,2,2022-09-15T20:55:08.717849,1098760,-5551,264,-492,143,-51,133,89,399,-177
918,2,2022-09-15T20:55:08.723868,1098765,-5551,264,-492,143,-51,133,89,399,-177
919,2,2022-09-15T20:55:08.729194,1098771,-5524,280,-508,47,-118,327,100,404,-180
920,2,2022-09-15T20:55:08.734775,1098776,-5524,280,-508,47,-118,327,100,404,-180
921,2,2022-09-15T20:55:08.740000,1098781,-5524,280,-508,47,-118,327,100,404,-180
922,2,2022-09-15T20:55:08.746370,1098787,-5520,290,-509,16,-82,380,100,404,-180
923,2,2022-09-15T20:55:08.751756,1098793,-5520,290,-509,16,-82,380,100,404,-180
924,2,2022-09-15T20:55:08.758635,1098800,-5520,290,-509,16,-82,380,100,404,-180
925,2,2022-09-15T20:55:08.763963,1098806,-5520,297,-500,-20,-93,412,100,404,-180
926,2,2022-09-15T20:55:08.769525,1098811,-5520,297,-500,-20,-93,412,100,404,-180
927,2,2022-09-15T20:55:08.775180,1098816,-5520,297,-500,-20,-93,412,100,404,-180
928,2,2022-09-15T20:55:08.780487,1098822,-5520,297,-500,-20,-93,412,100,404,-180
929,2,2022-09-15T20:55:08.786788,1098828,-5515,299,-508,-57,-151,390,100,404,-180
930,2,2022-09-15T20:55:08.793154,1098833,-5515,299,-508,-57,-151,390,100,404,-180
931,2,2022-09-15T20:55:08.798969,1098840,-5515,299,-508,-57,-151,390,100,404,-180
932,2,2022-09-15T20:55:08.805002,1098847,-5519,291,-509,-89,-217,325,100,404,-180
933,2,2022-09-15T20:55:08.810654,1098852,-5519,291,-509,-89,-217,325,100,404,-180
934,2,2022-09-15T20:55:08.815585,1098857,-5519,291,-509,-89,-217,325,100,404,-180
935,2,2022-09-15T20:55:08.822699,1098864,-5519,291,-509,-89,-217,325,100,404,-180
936,2,2022-09-15T20:55:08.829255,1098869,-5522,283,-503,-34,-286,213,100,404,-180
937,2,2022-09-15T20:55:08.835206,1098876,-5522,283,-503,-34,-286,213,100,404,-180
938,2,2022-09-15T20:55:08.840810,1098882,-5522,283,-503,-34,-286,213,100,404,-180
939,2,2022-09-15T20:55:08.846450,1098888,-5519,284,-499,64,-304,124,95,399,-177
940,2,2022-09-15T20:55:08.853152,1098894,-5519,284,-499,64,-304,124,95,399,-177
941,2,2022-09-15T20:55:08.858993,1098900,-5519,284,-499,64,-304,124,95,399,-177
942,2,2022-09-15T20:55:08.864506,1098906,-5514,292,-498,170,-322,119,95,399,-177
943,2,2022-09-15T20:55:08.869889,1098911,-5514,292,-498,170,-322,119,95,399,-177
944,2,2022-09-15T20:55:08.876024,1098916,-5514,292,-498,170,-322,119,95,399,-177
945,2,2022-09-15T20:55:08.881590,1098923,-5514,292,-498,170,-322,119,95,399,-177
946,2,2022-09-15T20:55:08.887127,1098928,-5517,299,-494,209,-326,115,95,399,-177
947,2,2022-09-15T20:55:08.892875,1098934,-5517,299,-494,209,-326,115,95,399,-177
948,2,2022-09-15T20:55:08.898996,1098940,-5517,299,-494,209,-326,115,95,399,-177
949,2,2022-09-15T20:55:08.905031,1098946,-5554,309,-482,184,-326,145,95,399,-177
950,2,2022-09-15T20:55:08.911336,1098952,-5554,309,-482,184,-326,145,95,399,-177
951,2,2022-09-15T20:55:08.916844,1098958,-5554,309,-482,184,-326,145,95,399,-177
952,2,2022-09-15T20:55:08.922588,1098963,-5554,309,-482,184,-326,145,95,399,-177
953,2,2022-09-15T20:55:08.929339,1098970,-5550,310,-474,134,-422,157,95,399,-177
954,2,2022-09-15T20:55:08.934838,1098976,-5550,310,-474,134,-422,157,95,399,-177
955,2,2022-09-15T20:55:08.940024,1098981,-5550,310,-474,134,-422,157,95,399,-177
956,2,2022-09-15T20:55:08.945609,1098987,-5536,313,-473,112,-486,190,95,399,-177
957,2,2022-09-15T20:55:08.951755,1098992,-5536,313,-473,112,-486,190,95,399,-177
958,2,2022-09-15T20:55:08.957381,1098998,-5536,313,-473,112,-486,190,95,399,-177
959,2,2022-09-15T20:55:08.963977,1099005,-5520,314,-468,70,-426,201,101,399,-177
960,2,2022-09-15T20:55:08.969498,1099011,-5520,314,-468,70,-426,201,101,409,-175
961,2,2022-09-15T20:55:08.975834,1099017,-5520,314,-468,70,-426,201,101,409,-175
962,2,2022-09-15T20:55:08.981546,1099022,-5520,314,-468,70,-426,201,101,409,-175
963,2,2022-09-15T20:55:08.987520,1099028,-5537,307,-467,-32,-318,115,101,409,-175
964,2,2022-09-15T20:55:08.993302,1099034,-5537,307,-467,-32,-318,115,101,409,-175
965,2,2022-09-15T20:55:08.999035,1099039,-5537,307,-467,-32,-318,115,101,409,-175
966,2,2022-09-15T20:55:09.004893,1099046,-5518,321,-480,-103,-213,-6,101,409,-175
967,2,2022-09-15T20:55:09.010866,1099052,-5518,321,-480,-103,-213,-6,101,409,-175
968,2,2022-09-15T20:55:09.016161,1099058,-5518,321,-480,-103,-213,-6,101,409,-175
969,2,2022-09-15T20:55:09.023034,1099064,-5518,321,-480,-103,-213,-6,101,409,-175
970,2,2022-09-15T20:55:09.028785,1099070,-5534,315,-465,-160,-100,24,101,409,-175
971,2,2022-09-15T20:55:09.034875,1099075,-5534,315,-465,-160,-100,24,101,409,-175
972,2,2022-09-15T20:55:09.041398,1099083,-5534,315,-465,-160,-100,24,101,409,-175
973,2,2022-09-15T20:55:09.046996,1099088,-5526,310,-481,-293,-95,-143,101,409,-175
974,2,2022-09-15T20:55:09.053002,1099094,-5526,310,-481,-293,-95,-143,101,409,-175
975,2,2022-09-15T20:55:09.060392,1099102,-5526,310,-481,-293,-95,-143,101,409,-175
976,2,2022-09-15T20:55:09.065624,1099107,-5526,294,-490,-391,-56,-267,101,409,-175
977,2,2022-09-15T20:55:09.071743,1099113,-5526,294,-490,-391,-56,-267,101,409,-175
978,2,2022-09-15T20:55:09.077603,1099118,-5526,294,-490,-391,-56,-267,101,409,-175
979,2,2022-09-15T20:55:09.084811,1099126,-5535,282,-498,-336,10,-382,101,409,-175
980,2,2022-09-15T20:55:09.091458,1099132,-5535,282,-498,-336,10,-382,101,409,-175
981,2,2022-09-15T20:55:09.096894,1099139,-5535,282,-498,-336,10,-382,101,409,-175
982,2,2022-09-15T20:55:09.103388,1099144,-5535,282,-498,-336,10,-382,101,409,-175
983,2,2022-09-15T20:55:09.109099,1099150,-5544,270,-495,-264,2,-487,88,404,-174
984,2,2022-09-15T20:55:09.115240,1099156,-5544,270,-495,-264,2,-487,88,404,-174
985,2,2022-09-15T20:55:09.120373,1099162,-5544,270,-495,-264,2,-487,88,404,-174
986,2,2022-09-15T20:55:09.126771,1099167,-5550,263,-498,-190,-58,-621,88,404,-174
987,2,2022-09-15T20:55:09.132088,1099173,-5550,263,-498,-190,-58,-621,88,404,-174
988,2,2022-09-15T20:55:09.138561,1099180,-5550,263,-498,-190,-58,-621,88,404,-174
989,2,2022-09-15T20:55:09.143802,1099185,-5550,263,-498,-190,-58,-621,88,404,-174
990,2,2022-09-15T20:55:09.150689,1099192,-5533,266,-501,-149,-133,-691,88,404,-174
991,2,2022-09-15T20:55:09.156350,1099198,-5533,266,-501,-149,-133,-691,88,404,-174
992,2,2022-09-15T20:55:09.162255,1099204,-5533,266,-501,-149,-133,-691,88,404,-174
993,2,2022-09-15T20:55:09.167589,1099209,-5537,260,-496,-138,-173,-623,88,404,-174
994,2,2022-09-15T20:55:09.173663,1099214,-5537,260,-496,-138,-173,-623,88,404,-174
995,2,2022-09-15T20:55:09.181842,1099223,-5537,260,-496,-138,-173,-623,88,404,-174
996,2,2022-09-15T20:55:09.187518,1099229,-5532,249,-496,-147,-248,-567,88,404,-174
997,2,2022-09-15T20:55:09.193072,1099234,-5532,249,-496,-147,-248,-567,88,404,-174
998,2,2022-09-15T20:55:09.199061,1099240,-5532,249,-496,-147,-248,-567,88,404,-174
999,2,2022-09-15T20:55:09.205368,1099246,-5515,244,-503,-170,-304,-562,88,404,-174
1000,2,2022-09-15T20:55:09.211288,1099252,-5515,244,-503,-170,-304,-562,88,404,-174
1001,2,2022-09-15T20:55:09.216965,1099258,-5515,244,-503,-170,-304,-562,88,404,-174
1002,2,2022-09-15T20:55:09.224038,1099265,-5515,244,-503,-170,-304,-562,88,404,-174
1003,2,2022-09-15T20:55:09.230010,1099271,-5511,255,-497,-154,-220,-503,97,403,-179
1004,2,2022-09-15T20:55:09.235519,1099277,-5511,255,-497,-154,-220,-503,97,403,-179
1005,2,2022-09-15T20:55:09.241190,1099282,-5511,255,-497,-154,-220,-503,97,403,-179
1006,2,2022-09-15T20:55:09.246984,1099288,-5512,249,-500,-141,-146,-296,97,403,-179
1007,2,2022-09-15T20:55:09.253590,1099294,-5512,249,-500,-141,-146,-296,97,403,-179
1008,2,2022-09-15T20:55:09.260289,1099301,-5512,249,-500,-141,-146,-296,97,403,-179
1009,2,2022-09-15T20:55:09.266409,1099308,-5509,252,-506,-149,-112,-207,97,403,-179
1010,2,2022-09-15T20:55:09.271685,1099313,-5509,252,-506,-149,-112,-207,97,403,-179
1011,2,2022-09-15T20:55:09.277630,1099319,-5509,252,-506,-149,-112,-207,97,403,-179
1012,2,2022-09-15T20:55:09.284051,1099325,-5519,247,-505,-145,-85,-108,97,403,-179
1013,2,2022-09-15T20:55:09.289490,1099331,-5519,247,-505,-145,-85,-108,97,403,-179
1014,2,2022-09-15T20:55:09.294787,1099336,-5519,247,-505,-145,-85,-108,97,403,-179
1015,2,2022-09-15T20:55:09.301696,1099342,-5519,247,-505,-145,-85,-108,97,403,-179
1016,2,2022-09-15T20:55:09.307188,1099348,-5519,248,-509,-104,-61,-86,97,403,-179
1017,2,2022-09-15T20:55:09.312849,1099354,-5519,248,-509,-104,-61,-86,97,403,-179
1018,2,2022-09-15T20:55:09.319748,1099361,-5519,248,-509,-104,-61,-86,97,403,-179
1019,2,2022-09-15T20:55:09.325747,1099367,-5523,251,-515,-112,-99,-158,97,403,-179
1020,2,2022-09-15T20:55:09.331368,1099372,-5523,251,-515,-112,-99,-158,97,403,-179
1021,2,2022-09-15T20:55:09.336573,1099378,-5523,251,-515,-112,-99,-158,97,403,-179
1022,2,2022-09-15T20:55:09.341693,1099383,-5523,251,-515,-112,-99,-158,97,403,-179
1023,2,2022-09-15T20:55:09.349310,1099389,-5547,250,-507,-104,-108,-191,99,403,-179
1024,2,2022-09-15T20:55:09.356126,1099397,-5547,250,-507,-104,-108,-191,99,403,-179
1025,2,2022-09-15T20:55:09.362715,1099404,-5547,250,-507,-104,-108,-191,99,403,-179
1026,2,2022-09-15T20:55:09.368474,1099409,-5553,246,-509,-78,-187,-112,99,403,-179
1027,2,2022-09-15T20:55:09.374711,1099415,-5553,246,-509,-78,-187,-112,99,403,-179
1028,2,2022-09-15T20:55:09.382134,1099423,-5553,246,-509,-78,-187,-112,99,403,-179
1029,2,2022-09-15T20:55:09.387475,1099428,-5532,249,-514,-26,-327,-113,99,403,-179
1030,2,2022-09-15T20:55:09.392843,1099435,-5532,249,-514,-26,-327,-113,99,403,-179
1031,2,2022-09-15T20:55:09.400096,1099441,-5532,249,-514,-26,-327,-113,99,403,-179
1032,2,2022-09-15T20:55:09.405300,1099447,-5526,257,-515,8,-307,-73,99,403,-179
1033,2,2022-09-15T20:55:09.410579,1099452,-5526,257,-515,8,-307,-73,99,403,-179
1034,2,2022-09-15T20:55:09.416227,1099457,-5526,257,-515,8,-307,-73,99,403,-179
1035,2,2022-09-15T20:55:09.423721,1099464,-5526,257,-515,8,-307,-73,99,403,-179
1036,2,2022-09-15T20:55:09.431463,1099472,-5521,264,-513,8,-270,-7,99,403,-179
1037,2,2022-09-15T20:55:09.436939,1099479,-5521,264,-513,8,-270,-7,99,403,-179
1038,2,2022-09-15T20:55:09.442219,1099484,-5521,264,-513,8,-270,-7,99,403,-179
1039,2,2022-09-15T20:55:09.447983,1099489,-5523,263,-505,-28,-315,56,99,403,-179
1040,2,2022-09-15T20:55:09.454750,1099495,-5523,263,-505,-28,-315,56,99,403,-179
1041,2,2022-09-15T20:55:09.460683,1099501,-5523,263,-505,-28,-315,56,99,403,-179
1042,2,2022-09-15T20:55:09.465943,1099507,-5523,265,-496,-64,-356,65,95,397,-173
1043,2,2022-09-15T20:55:09.471569,1099512,-5523,265,-496,-64,-356,65,95,397,-173
1044,2,2022-09-15T20:55:09.477456,1099518,-5523,265,-496,-64,-356,65,95,397,-173
1045,2,2022-09-15T20:55:09.484741,1099526,-5517,268,-492,-72,-360,74,95,397,-173
1046,2,2022-09-15T20:55:09.489778,1099531,-5517,268,-492,-72,-360,74,95,397,-173
1047,2,2022-09-15T20:55:09.495115,1099536,-5517,268,-492,-72,-360,74,95,397,-173
1048,2,2022-09-15T20:55:09.502268,1099543,-5517,268,-492,-72,-360,74,95,397,-173
1049,2,2022-09-15T20:55:09.507758,1099549,-5522,257,-495,-51,-332,68,95,397,-173
1050,2,2022-09-15T20:55:09.513290,1099554,-5522,257,-495,-51,-332,68,95,397,-173
1051,2,2022-09-15T20:55:09.520282,1099561,-5522,257,-495,-51,-332,68,95,397,-173
1052,2,2022-09-15T20:55:09.526215,1099567,-5537,275,-490,-12,-301,68,95,397,-173
1053,2,2022-09-15T20:55:09.533824,1099575,-5537,275,-490,-12,-301,68,95,397,-173
1054,2,2022-09-15T20:55:09.539205,1099580,-5537,275,-490,-12,-301,68,95,397,-173
1055,2,2022-09-15T20:55:09.544514,1099586,-5526,282,-496,-44,-283,56,95,397,-173
1056,2,2022-09-15T20:55:09.550651,1099591,-5526,282,-496,-44,-283,56,95,397,-173
1057,2,2022-09-15T20:55:09.556723,1099597,-5526,282,-496,-44,-283,56,95,397,-173
1058,2,2022-09-15T20:55:09.563731,1099606,-5526,282,-496,-44,-283,56,95,397,-173
1059,2,2022-09-15T20:55:09.569137,1099610,-5526,275,-502,-78,-219,89,95,397,-173
1060,2,2022-09-15T20:55:09.575342,1099616,-5526,275,-502,-78,-219,89,95,397,-173
1061,2,2022-09-15T20:55:09.580663,1099622,-5526,275,-502,-78,-219,89,95,397,-173
1062,2,2022-09-15T20:55:09.586241,1099627,-5552,278,-486,-122,-119,142,90,394,-180
1063,2,2022-09-15T20:55:09.591946,1099633,-5552,278,-486,-122,-119,142,90,394,-180
1064,2,2022-09-15T20:55:09.597364,1099638,-5552,278,-486,-122,-119,142,90,394,-180
1065,2,2022-09-15T20:55:09.603560,1099643,-5552,278,-486,-122,-119,142,90,394,-180
1066,2,2022-09-15T20:55:09.609205,1099650,-5542,269,-484,-186,-223,54,90,394,-180
1067,2,2022-09-15T20:55:09.614731,1099656,-5542,269,-484,-186,-223,54,90,394,-180
1068,2,2022-09-15T20:55:09.621460,1099663,-5542,269,-484,-186,-223,54,90,394,-180
1069,2,2022-09-15T20:55:09.629854,1099670,-5519,278,-497,-214,-269,-58,90,394,-180
1070,2,2022-09-15T20:55:09.635291,1099676,-5519,278,-497,-214,-269,-58,90,394,-180
1071,2,2022-09-15T20:55:09.640524,1099682,-5519,278,-497,-214,-269,-58,90,394,-180
1072,2,2022-09-15T20:55:09.647858,1099689,-5511,273,-487,-225,-216,-144,90,394,-180
1073,2,2022-09-15T20:55:09.654697,1099696,-5511,273,-487,-225,-216,-144,90,394,-180
1074,2,2022-09-15T20:55:09.660390,1099702,-5511,273,-487,-225,-216,-144,90,394,-180
1075,2,2022-09-15T20:55:09.665748,1099707,-5516,284,-488,-218,-166,-131,90,394,-180
1076,2,2022-09-15T20:55:09.670879,1099712,-5516,284,-488,-218,-166,-131,90,394,-180
1077,2,2022-09-15T20:55:09.676481,1099717,-5516,284,-488,-218,-166,-131,90,394,-180
1078,2,2022-09-15T20:55:09.681912,1099723,-5516,284,-488,-218,-166,-131,90,394,-180
1079,2,2022-09-15T20:55:09.688162,1099729,-5516,264,-492,-160,-180,-72,90,394,-180
1080,2,2022-09-15T20:55:09.693987,1099735,-5516,264,-492,-160,-180,-72,90,394,-180
1081,2,2022-09-15T20:55:09.699866,1099741,-5516,264,-492,-160,-180,-72,90,394,-180
1082,2,2022-09-15T20:55:09.705500,1099747,-5534,258,-517,-21,-123,-2,90,394,-180
1083,2,2022-09-15T20:55:09.710873,1099752,-5534,258,-517,-21,-123,-2,90,394,-180
1084,2,2022-09-15T20:55:09.716100,1099757,-5534,258,-517,-21,-123,-2,90,394,-180
1085,2,2022-09-15T20:55:09.721094,1099762,-5534,258,-517,-21,-123,-2,90,394,-180
1086,2,2022-09-15T20:55:09.727583,1099768,-5556,268,-493,130,-121,-63,92,404,-182
1087,2,2022-09-15T20:55:09.733698,1099774,-5556,268,-493,130,-121,-63,92,404,-182
1088,2,2022-09-15T20:55:09.739207,1099781,-5556,268,-493,130,-121,-63,92,404,-182
1089,2,2022-09-15T20:55:09.744301,1099786,-5524,275,-492,182,-192,-170,92,404,-182
1090,2,2022-09-15T20:55:09.750900,1099791,-5524,275,-492,182,-192,-170,92,404,-182
1091,2,2022-09-15T20:55:09.756222,1099798,-5524,275,-492,182,-192,-170,92,404,-182
1092,2,2022-09-15T20:55:09.762918,1099804,-5524,275,-492,182,-192,-170,92,404,-182
1093,2,2022-09-15T20:55:09.768059,1099809,-5537,286,-492,194,-228,-85,92,404,-182
1094,2,2022-09-15T20:55:09.773575,1099814,-5537,286,-492,194,-228,-85,92,404,-182
1095,2,2022-09-15T20:55:09.779697,1099821,-5537,286,-492,194,-228,-85,92,404,-182
1096,2,2022-09-15T20:55:09.784643,1099826,-5530,281,-484,146,-320,-76,92,404,-182
1097,2,2022-09-15T20:55:09.790948,1099832,-5530,281,-484,146,-320,-76,92,404,-182
1098,2,2022-09-15T20:55:09.796362,1099838,-5530,281,-484,146,-320,-76,92,404,-182
1099,2,2022-09-15T20:55:09.802375,1099843,-5530,281,-484,146,-320,-76,92,404,-182
1100,2,2022-09-15T20:55:09.807916,1099849,-5520,287,-480,48,-362,-87,92,404,-182
1101,2,2022-09-15T20:55:09.813298,1099854,-5520,287,-480,48,-362,-87,92,404,-182
1102,2,2022-09-15T20:55:09.819666,1099862,-5520,287,-480,48,-362,-87,92,404,-182
1103,2,2022-09-15T20:55:09.825583,1099867,-5505,288,-485,-47,-360,-139,92,404,-182
1104,2,2022-09-15T20:55:09.831446,1099872,-5505,288,-485,-47,-360,-139,92,404,-182
1105,2,2022-09-15T20:55:09.836929,1099878,-5505,288,-485,-47,-360,-139,92,404,-182
1106,2,2022-09-15T20:55:09.843293,1099885,-5505,288,-485,-47,-360,-139,92,404,-182
1107,2,2022-09-15T20:55:09.849970,1099891,-5517,270,-480,-108,-299,-124,91,403,-181
1108,2,2022-09-15T20:55:09.861204,1099896,-5517,270,-480,-108,-299,-124,91,403,-181
1109,2,2022-09-15T20:55:09.899586,1099940,-5532,268,-485,-43,-263,-60,91,403,-181
1110,2,2022-09-15T20:55:09.913013,1099955,-5536,265,-490,16,-261,-53,91,403,-181
1111,2,2022-09-15T20:55:09.926078,1099966,-5536,265,-490,16,-261,-53,91,403,-181
1112,2,2022-09-15T20:55:09.935752,1099976,-5528,274,-490,52,-268,-94,91,403,-181
1113,2,2022-09-15T20:55:09.942335,1099983,-5528,274,-490,52,-268,-94,91,403,-181
1114,2,2022-09-15T20:55:09.949459,1099991,-5528,273,-488,51,-252,-82,91,403,-181
1115,2,2022-09-15T20:55:09.956512,1099998,-5528,273,-488,51,-252,-82,91,403,-181
1116,2,2022-09-15T20:55:09.963076,1100005,-5528,273,-488,51,-252,-82,91,403,-181
1117,2,2022-09-15T20:55:09.969216,1100011,-5524,273,-482,49,-230,-100,88,400,-184
1118,2,2022-09-15T20:55:09.975434,1100016,-5524,273,-482,49,-230,-100,88,400,-184
1119,2,2022-09-15T20:55:09.983497,1100024,-5524,273,-482,49,-230,-100,88,400,-184
1120,2,2022-09-15T20:55:09.990563,1100032,-5524,277,-482,40,-218,-72,88,400,-184
1121,2,2022-09-15T20:55:09.997948,1100039,-5524,277,-482,40,-218,-72,88,400,-184
1122,2,2022-09-15T20:55:10.005179,1100047,-5523,282,-494,18,-187,-86,88,400,-184
1123,2,2022-09-15T20:55:10.013816,1100055,-5523,282,-494,18,-187,-86,88,400,-184
1124,2,2022-09-15T20:55:10.020646,1100062,-5523,282,-494,18,-187,-86,88,400,-184
1125,2,2022-09-15T20:55:10.027834,1100069,-5531,282,-494,-31,-125,-122,88,400,-184
1126,2,2022-09-15T20:55:10.033697,1100075,-5531,282,-494,-31,-125,-122,88,400,-184
1127,2,2022-09-15T20:55:10.041963,1100083,-5531,282,-494,-31,-125,-122,88,400,-184
1128,2,2022-09-15T20:55:10.049440,1100091,-5550,268,-492,-82,-109,-197,88,400,-184
1129,2,2022-09-15T20:55:10.055766,1100097,-5550,268,-492,-82,-109,-197,88,400,-184
1130,2,2022-09-15T20:55:10.062533,1100103,-5550,268,-492,-82,-109,-197,88,400,-184
1131,2,2022-09-15T20:55:10.070099,1100111,-5549,248,-494,-50,-164,-226,88,400,-184
1132,2,2022-09-15T20:55:10.078499,1100120,-5549,248,-494,-50,-164,-226,88,400,-184
1133,2,2022-09-15T20:55:10.085521,1100127,-5531,261,-499,66,-253,-343,90,406,-176
1134,2,2022-09-15T20:55:10.092220,1100134,-5531,261,-499,66,-253,-343,90,406,-176
1135,2,2022-09-15T20:55:10.097766,1100139,-5531,261,-499,66,-253,-343,90,406,-176
1136,2,2022-09-15T20:55:10.104228,1100146,-5531,261,-499,66,-253,-343,90,406,-176
1137,2,2022-09-15T20:55:10.110703,1100152,-5506,248,-495,150,-134,-435,90,406,-176
1138,2,2022-09-15T20:55:10.115929,1100157,-5506,248,-495,150,-134,-435,90,406,-176
1139,2,2022-09-15T20:55:10.123693,1100165,-5506,248,-495,150,-134,-435,90,406,-176
1140,2,2022-09-15T20:55:10.129916,1100172,-5507,259,-486,320,73,-428,90,406,-176
1141,2,2022-09-15T20:55:10.135405,1100177,-5507,259,-486,320,73,-428,90,406,-176
1142,2,2022-09-15T20:55:10.141858,1100183,-5507,259,-486,320,73,-428,90,406,-176
1143,2,2022-09-15T20:55:10.148761,1100190,-5525,291,-479,430,215,-301,90,406,-176
1144,2,2022-09-15T20:55:10.154389,1100195,-5525,291,-479,430,215,-301,90,406,-176
1145,2,2022-09-15T20:55:10.162015,1100204,-5525,291,-479,430,215,-301,90,406,-176
1146,2,2022-09-15T20:55:10.169566,1100211,-5512,286,-495,339,161,-86,90,406,-176
1147,2,2022-09-15T20:55:10.175645,1100217,-5512,286,-495,339,161,-86,90,406,-176
1148,2,2022-09-15T20:55:10.183684,1100225,-5512,286,-495,339,161,-86,90,406,-176
1149,2,2022-09-15T20:55:10.191037,1100231,-5514,271,-489,159,132,140,90,406,-176
1150,2,2022-09-15T20:55:10.198902,1100238,-5514,271,-489,159,132,140,90,406,-176
1151,2,2022-09-15T20:55:10.208639,1100250,-5526,287,-494,-8,44,205,95,397,-181
1152,2,2022-09-15T20:55:10.218485,1100260,-5526,287,-494,-8,44,205,95,397,-181
1153,2,2022-09-15T20:55:10.227616,1100269,-5534,281,-501,-167,-6,147,95,397,-181
1154,2,2022-09-15T20:55:10.245632,1100285,-5534,281,-501,-167,-6,147,95,397,-181
1155,2,2022-09-15T20:55:10.256134,1100297,-5534,281,-508,-316,-7,-31,95,397,-181
1156,2,2022-09-15T20:55:10.265921,1100307,-5533,268,-514,-448,-25,-200,95,397,-181
1157,2,2022-09-15T20:55:10.275710,1100315,-5533,268,-514,-448,-25,-200,95,397,-181
1158,2,2022-09-15T20:55:10.285328,1100325,-5533,268,-514,-448,-25,-200,95,397,-181
1159,2,2022-09-15T20:55:10.292930,1100335,-5526,268,-514,-469,-145,-338,95,397,-181
1160,2,2022-09-15T20:55:10.303190,1100344,-5526,268,-514,-469,-145,-338,95,397,-181
1161,2,2022-09-15T20:55:10.311709,1100353,-5555,265,-506,-420,-237,-180,95,397,-181
1162,2,2022-09-15T20:55:10.318635,1100360,-5555,265,-506,-420,-237,-180,95,397,-181
1163,2,2022-09-15T20:55:10.328377,1100366,-5555,265,-506,-420,-237,-180,95,397,-181
1164,2,2022-09-15T20:55:10.338179,1100379,-5532,243,-526,-336,-455,-189,95,397,-181
1165,2,2022-09-15T20:55:10.350330,1100390,-5525,248,-510,-209,-465,-162,87,397,-185
1166,2,2022-09-15T20:55:10.361193,1100402,-5525,248,-510,-209,-465,-162,87,397,-185
1167,2,2022-09-15T20:55:10.371380,1100412,-5537,259,-503,-134,-355,-151,87,397,-185
1168,2,2022-09-15T20:55:10.379841,1100421,-5537,259,-503,-134,-355,-151,87,397,-185
1169,2,2022-09-15T20:55:10.387197,1100429,-5519,257,-507,-60,-342,-201,87,397,-185
1170,2,2022-09-15T20:55:10.397229,1100438,-5519,257,-507,-60,-342,-201,87,397,-185
1171,2,2022-09-15T20:55:10.409176,1100450,-5516,279,-515,10,-309,-174,87,397,-185
1172,2,2022-09-15T20:55:10.418048,1100460,-5516,279,-515,10,-309,-174,87,397,-185
1173,2,2022-09-15T20:55:10.426402,1100467,-5516,279,-515,10,-309,-174,87,397,-185
1174,2,2022-09-15T20:55:10.435630,1100477,-5516,279,-494,39,-303,-62,87,397,-185
1175,2,2022-09-15T20:55:10.443156,1100484,-5516,279,-494,39,-303,-62,87,397,-185
1176,2,2022-09-15T20:55:10.451544,1100491,-5522,266,-501,78,-323,109,87,397,-185
1177,2,2022-09-15T20:55:10.460362,1100499,-5522,266,-501,78,-323,109,87,397,-185
1178,2,2022-09-15T20:55:10.469449,1100511,-5546,251,-477,80,-392,122,87,395,-175
1179,2,2022-09-15T20:55:10.477094,1100519,-5546,251,-477,80,-392,122,87,395,-175
1180,2,2022-09-15T20:55:10.484208,1100526,-5546,251,-477,80,-392,122,87,395,-175
1181,2,2022-09-15T20:55:10.490561,1100532,-5535,259,-478,22,-454,-137,87,395,-175
1182,2,2022-09-15T20:55:10.497020,1100538,-5535,259,-478,22,-454,-137,87,395,-175
1183,2,2022-09-15T20:55:10.503768,1100546,-5535,259,-478,22,-454,-137,87,395,-175
1184,2,2022-09-15T20:55:10.511424,1100552,-5520,262,-482,12,-424,-321,87,395,-175
1185,2,2022-09-15T20:55:10.517233,1100558,-5520,262,-482,12,-424,-321,87,395,-175
1186,2,2022-09-15T20:55:10.525058,1100565,-5520,262,-482,12,-424,-321,87,395,-175
1187,2,2022-09-15T20:55:10.534050,1100575,-5545,269,-474,27,-352,-303,87,395,-175
1188,2,2022-09-15T20:55:10.541174,1100582,-5545,269,-474,27,-352,-303,87,395,-175
1189,2,2022-09-15T20:55:10.548616,1100589,-5505,297,-483,-81,-370,-402,87,395,-175
1190,2,2022-09-15T20:55:10.557048,1100599,-5505,297,-483,-81,-370,-402,87,395,-175
1191,2,2022-09-15T20:55:10.563879,1100605,-5505,297,-483,-81,-370,-402,87,395,-175
1192,2,2022-09-15T20:55:10.569299,1100611,-5516,274,-482,-222,-295,-228,87,395,-175
1193,2,2022-09-15T20:55:10.576960,1100618,-5516,274,-482,-222,-295,-228,87,395,-175
1194,2,2022-09-15T20:55:10.586254,1100627,-5527,270,-480,-334,-283,-190,92,395,-175
1195,2,2022-09-15T20:55:10.594221,1100636,-5527,270,-480,-334,-283,-190,92,390,-176
1196,2,2022-09-15T20:55:10.603777,1100645,-5527,270,-480,-334,-283,-190,92,390,-176
1197,2,2022-09-15T20:55:10.611165,1100653,-5487,271,-492,-302,-261,-126,92,390,-176
1198,2,2022-09-15T20:55:10.616583,1100658,-5487,271,-492,-302,-261,-126,92,390,-176
1199,2,2022-09-15T20:55:10.623811,1100664,-5487,271,-492,-302,-261,-126,92,390,-176
1200,2,2022-09-15T20:55:10.632972,1100675,-5542,252,-483,-138,-74,156,92,390,-176
1201,2,2022-09-15T20:55:10.639990,1100682,-5542,252,-483,-138,-74,156,92,390,-176
1202,2,2022-09-15T20:55:10.645383,1100687,-5542,252,-483,-138,-74,156,92,390,-176
1203,2,2022-09-15T20:55:10.654273,1100693,-5520,262,-484,-74,-159,-77,92,390,-176
1204,2,2022-09-15T20:55:10.662522,1100704,-5520,262,-484,-74,-159,-77,92,390,-176
1205,2,2022-09-15T20:55:10.672379,1100713,-5541,276,-497,-105,-126,-153,92,390,-176
1206,2,2022-09-15T20:55:10.680166,1100721,-5541,276,-497,-105,-126,-153,92,390,-176
1207,2,2022-09-15T20:55:10.688402,1100730,-5547,274,-488,-133,-125,-213,92,390,-176
1208,2,2022-09-15T20:55:10.696626,1100738,-5547,274,-488,-133,-125,-213,92,390,-176
1209,2,2022-09-15T20:55:10.705071,1100746,-5547,274,-488,-133,-125,-213,92,390,-176
1210,2,2022-09-15T20:55:10.713821,1100754,-5529,276,-485,-199,-176,-247,95,399,-177
1211,2,2022-09-15T20:55:10.720264,1100761,-5529,276,-485,-199,-176,-247,95,399,-177
1212,2,2022-09-15T20:55:10.727425,1100767,-5529,276,-485,-199,-176,-247,95,399,-177
1213,2,2022-09-15T20:55:10.736379,1100777,-5514,277,-500,-280,-199,-263,95,399,-177
1214,2,2022-09-15T20:55:10.741665,1100783,-5514,277,-500,-280,-199,-263,95,399,-177
1215,2,2022-09-15T20:55:10.749029,1100789,-5509,265,-504,-338,-182,-190,95,399,-177
1216,2,2022-09-15T20:55:10.756002,1100796,-5509,265,-504,-338,-182,-190,95,399,-177
1217,2,2022-09-15T20:55:10.765195,1100807,-5509,265,-504,-338,-182,-190,95,399,-177
1218,2,2022-09-15T20:55:10.771937,1100814,-5546,246,-500,-344,-163,-149,95,399,-177
1219,2,2022-09-15T20:55:10.778330,1100819,-5546,246,-500,-344,-163,-149,95,399,-177
1220,2,2022-09-15T20:55:10.787794,1100829,-5551,238,-496,-298,-292,-164,95,399,-177
1221,2,2022-09-15T20:55:10.793693,1100834,-5551,238,-496,-298,-292,-164,95,399,-177
1222,2,2022-09-15T20:55:10.800653,1100840,-5551,238,-496,-298,-292,-164,95,399,-177
1223,2,2022-09-15T20:55:10.812241,1100854,-5531,240,-493,-195,-395,-116,95,399,-177
1224,2,2022-09-15T20:55:10.819527,1100861,-5531,240,-493,-195,-395,-116,95,399,-177
1225,2,2022-09-15T20:55:10.827634,1100867,-5515,245,-488,-95,-401,-15,104,392,-170
1226,2,2022-09-15T20:55:10.839806,1100880,-5515,245,-488,-95,-401,-15,104,392,-170
1227,2,2022-09-15T20:55:10.847179,1100889,-5515,243,-482,-8,-377,94,104,392,-170
1228,2,2022-09-15T20:55:10.859021,1100900,-5515,243,-482,-8,-377,94,104,392,-170
1229,2,2022-09-15T20:55:10.866360,1100908,-5516,257,-484,58,-329,170,104,392,-170
1230,2,2022-09-15T20:55:10.875964,1100916,-5516,257,-484,58,-329,170,104,392,-170
1231,2,2022-09-15T20:55:10.887276,1100929,-5521,260,-485,76,-279,226,104,392,-170
1232,2,2022-09-15T20:55:10.893890,1100935,-5521,260,-485,76,-279,226,104,392,-170
1233,2,2022-09-15T20:55:10.900694,1100941,-5521,260,-485,76,-279,226,104,392,-170
1234,2,2022-09-15T20:55:10.910911,1100952,-5520,267,-483,44,-218,175,104,392,-170
1235,2,2022-09-15T20:55:10.918850,1100960,-5520,267,-483,44,-218,175,104,392,-170
1236,2,2022-09-15T20:55:10.933037,1100975,-5517,270,-491,-13,-154,75,104,392,-170
1237,2,2022-09-15T20:55:10.943527,1100985,-5517,270,-491,-13,-154,75,104,392,-170
1238,2,2022-09-15T20:55:10.956491,1100997,-5523,267,-486,-60,-71,13,104,392,-170
1239,2,2022-09-15T20:55:10.966550,1101007,-5523,267,-486,-60,-71,13,104,392,-170
1240,2,2022-09-15T20:55:10.974509,1101016,-5526,262,-488,-116,-34,-25,96,392,-178
1241,2,2022-09-15T20:55:10.981742,1101023,-5526,262,-488,-116,-34,-25,96,392,-178
1242,2,2022-09-15T20:55:10.990753,1101032,-5533,255,-497,-126,9,2,96,392,-178
1243,2,2022-09-15T20:55:10.999244,1101040,-5533,255,-497,-126,9,2,96,392,-178
1244,2,2022-09-15T20:55:11.009143,1101050,-5536,258,-501,-137,57,-1,96,392,-178
1245,2,2022-09-15T20:55:11.016469,1101058,-5536,258,-501,-137,57,-1,96,392,-178
1246,2,2022-09-15T20:55:11.024117,1101065,-5536,258,-501,-137,57,-1,96,392,-178
1247,2,2022-09-15T20:55:11.035003,1101076,-5532,254,-502,-156,44,1,96,392,-178
1248,2,2022-09-15T20:55:11.043791,1101085,-5532,254,-502,-156,44,1,96,392,-178
1249,2,2022-09-15T20:55:11.050966,1101091,-5534,260,-502,-182,-36,17,96,392,-178
1250,2,2022-09-15T20:55:11.058218,1101099,-5534,260,-502,-182,-36,17,96,392,-178
1251,2,2022-09-15T20:55:11.066007,1101107,-5534,260,-502,-182,-36,17,96,392,-178
1252,2,2022-09-15T20:55:11.073510,1101115,-5526,260,-503,-191,-104,38,96,392,-178
1253,2,2022-09-15T20:55:11.080507,1101121,-5526,260,-503,-191,-104,38,96,392,-178
1254,2,2022-09-15T20:55:11.089444,1101130,-5530,270,-495,-181,-105,102,93,391,-185
1255,2,2022-09-15T20:55:11.096470,1101137,-5530,270,-495,-181,-105,102,93,391,-185
1256,2,2022-09-15T20:55:11.105780,1101146,-5530,270,-495,-181,-105,102,93,391,-185
1257,2,2022-09-15T20:55:11.114018,1101156,-5532,269,-497,-178,-113,119,93,391,-185
1258,2,2022-09-15T20:55:11.120423,1101162,-5532,269,-497,-178,-113,119,93,391,-185
1259,2,2022-09-15T20:55:11.126647,1101167,-5527,268,-500,-178,-129,95,93,391,-185
1260,2,2022-09-15T20:55:11.138508,1101180,-5527,268,-500,-178,-129,95,93,391,-185
1261,2,2022-09-15T20:55:11.145172,1101187,-5527,268,-500,-178,-129,95,93,391,-185
1262,2,2022-09-15T20:55:11.152611,1101192,-5539,272,-502,-188,-151,101,93,391,-185
1263,2,2022-09-15T20:55:11.160872,1101202,-5539,272,-502,-188,-151,101,93,391,-185
1264,2,2022-09-15T20:55:11.167851,1101209,-5524,273,-504,-180,-229,60,93,391,-185
1265,2,2022-09-15T20:55:11.177759,1101216,-5524,273,-504,-180,-229,60,93,391,-185
1266,2,2022-09-15T20:55:11.187675,1101229,-5531,275,-501,-183,-228,59,93,391,-185
1267,2,2022-09-15T20:55:11.195361,1101237,-5531,275,-501,-183,-228,59,93,391,-185
1268,2,2022-09-15T20:55:11.206685,1101247,-5529,274,-487,-157,-246,50,93,391,-185
1269,2,2022-09-15T20:55:11.215681,1101257,-5529,274,-487,-157,-246,50,96,398,-180
1270,2,2022-09-15T20:55:11.222852,1101263,-5529,274,-487,-157,-246,50,96,398,-180
1271,2,2022-09-15T20:55:11.234575,1101276,-5530,272,-491,-109,-306,49,96,398,-180
1272,2,2022-09-15T20:55:11.240416,1101282,-5530,272,-491,-109,-306,49,96,398,-180
1273,2,2022-09-15T20:55:11.247035,1101289,-5518,279,-491,-45,-375,41,96,398,-180
1274,2,2022-09-15T20:55:11.254482,1101294,-5518,279,-491,-45,-375,41,96,398,-180
1275,2,2022-09-15T20:55:11.262625,1101304,-5518,279,-491,-45,-375,41,96,398,-180
1276,2,2022-09-15T20:55:11.270797,1101313,-5527,277,-485,3,-333,111,96,398,-180
1277,2,2022-09-15T20:55:11.277314,1101318,-5527,277,-485,3,-333,111,96,398,-180
1278,2,2022-09-15T20:55:11.287343,1101329,-5526,276,-490,52,-316,103,96,398,-180
1279,2,2022-09-15T20:55:11.292705,1101334,-5526,276,-490,52,-316,103,96,398,-180
1280,2,2022-09-15T20:55:11.298694,1101339,-5526,276,-490,52,-316,103,96,398,-180
1281,2,2022-09-15T20:55:11.310255,1101350,-5525,289,-487,55,-297,104,96,398,-180
1282,2,2022-09-15T20:55:11.316262,1101357,-5525,289,-487,55,-297,104,96,398,-180
1283,2,2022-09-15T20:55:11.323730,1101365,-5525,289,-487,55,-297,104,96,398,-180
1284,2,2022-09-15T20:55:11.333897,1101375,-5530,294,-487,49,-316,151,98,398,-176
1285,2,2022-09-15T20:55:11.339900,1101381,-5530,294,-487,49,-316,151,98,398,-176
1286,2,2022-09-15T20:55:11.345319,1101387,-5530,294,-487,49,-316,151,98,398,-176
1287,2,2022-09-15T20:55:11.353099,1101393,-5521,300,-481,39,-291,152,98,398,-176
1288,2,2022-09-15T20:55:11.361687,1101403,-5521,300,-481,39,-291,152,98,398,-176
1289,2,2022-09-15T20:55:11.367154,1101409,-5532,298,-481,19,-250,174,98,398,-176
1290,2,2022-09-15T20:55:11.373231,1101414,-5532,298,-481,19,-250,174,98,398,-176
1291,2,2022-09-15T20:55:11.381680,1101422,-5532,298,-481,19,-250,174,98,398,-176
1292,2,2022-09-15T20:55:11.391136,1101432,-5526,303,-486,-13,-279,96,98,398,-176
1293,2,2022-09-15T20:55:11.396645,1101438,-5526,303,-486,-13,-279,96,98,398,-176
1294,2,2022-09-15T20:55:11.404267,1101446,-5526,303,-486,-13,-279,96,98,398,-176
1295,2,2022-09-15T20:55:11.411080,1101453,-5533,301,-476,-58,-280,83,98,398,-176
1296,2,2022-09-15T20:55:11.417192,1101459,-5533,301,-476,-58,-280,83,98,398,-176
1297,2,2022-09-15T20:55:11.423727,1101465,-5533,301,-476,-58,-280,83,98,398,-176
1298,2,2022-09-15T20:55:11.430705,1101471,-5531,300,-483,-136,-290,27,98,398,-176
1299,2,2022-09-15T20:55:11.437845,1101479,-5531,300,-483,-136,-290,27,98,398,-176
1300,2,2022-09-15T20:55:11.446546,1101488,-5522,310,-486,-174,-255,-38,98,398,-176
1301,2,2022-09-15T20:55:11.457390,1101499,-5522,310,-486,-174,-255,-38,86,396,-184
1302,2,2022-09-15T20:55:11.465047,1101506,-5522,310,-486,-174,-255,-38,86,396,-184
1303,2,2022-09-15T20:55:11.470696,1101512,-5538,295,-484,-184,-195,-14,86,396,-184
1304,2,2022-09-15T20:55:11.478728,1101518,-5538,295,-484,-184,-195,-14,86,396,-184
1305,2,2022-09-15T20:55:11.487743,1101530,-5536,303,-491,-172,-201,-173,86,396,-184
1306,2,2022-09-15T20:55:11.494670,1101536,-5536,303,-491,-172,-201,-173,86,396,-184
1307,2,2022-09-15T20:55:11.501104,1101542,-5536,303,-491,-172,-201,-173,86,396,-184
1308,2,2022-09-15T20:55:11.510141,1101551,-5530,307,-493,-170,-143,-259,86,396,-184
1309,2,2022-09-15T20:55:11.516002,1101557,-5530,307,-493,-170,-143,-259,86,396,-184
1310,2,2022-09-15T20:55:11.521425,1101562,-5530,307,-493,-170,-143,-259,86,396,-184
1311,2,2022-09-15T20:55:11.528289,1101569,-5505,313,-498,-204,-108,-326,86,396,-184
1312,2,2022-09-15T20:55:11.538092,1101580,-5505,313,-498,-204,-108,-326,86,396,-184
1313,2,2022-09-15T20:55:11.545107,1101587,-5505,313,-498,-204,-108,-326,86,396,-184
1314,2,2022-09-15T20:55:11.552660,1101593,-5502,313,-498,-281,-83,-274,86,396,-184
1315,2,2022-09-15T20:55:11.563728,1101604,-5502,313,-498,-281,-83,-274,86,396,-184
1316,2,2022-09-15T20:55:11.571399,1101614,-5530,302,-489,-329,-64,23,86,396,-184
1317,2,2022-09-15T20:55:11.581491,1101622,-5530,302,-489,-329,-64,23,86,396,-184
1318,2,2022-09-15T20:55:11.590974,1101632,-5546,294,-496,-318,-197,267,98,398,-174
1319,2,2022-09-15T20:55:11.596605,1101638,-5546,294,-496,-318,-197,267,98,398,-174
1320,2,2022-09-15T20:55:11.606225,1101646,-5546,294,-496,-318,-197,267,98,398,-174
1321,2,2022-09-15T20:55:11.612025,1101652,-5523,267,-486,-329,-304,200,98,398,-174
1322,2,2022-09-15T20:55:11.617930,1101660,-5523,267,-486,-329,-304,200,98,398,-174
1323,2,2022-09-15T20:55:11.626125,1101666,-5523,267,-486,-329,-304,200,98,398,-174
1324,2,2022-09-15T20:55:11.634566,1101676,-5530,289,-498,-296,-152,163,98,398,-174
1325,2,2022-09-15T20:55:11.639996,1101681,-5530,289,-498,-296,-152,163,98,398,-174
1326,2,2022-09-15T20:55:11.646669,1101688,-5558,268,-489,-234,-118,120,98,398,-174
1327,2,2022-09-15T20:55:11.655654,1101693,-5558,268,-489,-234,-118,120,98,398,-174
1328,2,2022-09-15T20:55:11.662298,1101704,-5558,268,-489,-234,-118,120,98,398,-174
1329,2,2022-09-15T20:55:11.669903,1101712,-5551,272,-484,-184,-192,-169,98,398,-174
1330,2,2022-09-15T20:55:11.679099,1101720,-5551,272,-484,-184,-192,-169,98,398,-174
1331,2,2022-09-15T20:55:11.687017,1101728,-5500,295,-498,-216,-219,-523,98,398,-174
1332,2,2022-09-15T20:55:11.694178,1101735,-5500,295,-498,-216,-219,-523,98,398,-174
1333,2,2022-09-15T20:55:11.700931,1101742,-5500,295,-498,-216,-219,-523,98,398,-174
1334,2,2022-09-15T20:55:11.709581,1101751,-5514,314,-495,-231,-100,-470,90,396,-176
1335,2,2022-09-15T20:55:11.715591,1101757,-5514,314,-495,-231,-100,-470,90,396,-176
1336,2,2022-09-15T20:55:11.721475,1101762,-5514,314,-495,-231,-100,-470,90,396,-176
1337,2,2022-09-15T20:55:11.732782,1101774,-5515,299,-495,-300,-134,-339,90,396,-176
1338,2,2022-09-15T20:55:11.738319,1101779,-5515,299,-495,-300,-134,-339,90,396,-176
1339,2,2022-09-15T20:55:11.746168,1101788,-5515,299,-495,-300,-134,-339,90,396,-176
1340,2,2022-09-15T20:55:11.754113,1101793,-5509,292,-507,-365,-188,-218,90,396,-176
1341,2,2022-09-15T20:55:11.760212,1101802,-5509,292,-507,-365,-188,-218,90,396,-176
1342,2,2022-09-15T20:55:11.768146,1101809,-5537,288,-511,-336,-132,-21,90,396,-176
1343,2,2022-09-15T20:55:11.776537,1101817,-5537,288,-511,-336,-132,-21,90,396,-176
1344,2,2022-09-15T20:55:11.784808,1101827,-5537,288,-511,-336,-132,-21,90,396,-176
1345,2,2022-09-15T20:55:11.790383,1101832,-5549,273,-498,-288,-140,41,90,396,-176
1346,2,2022-09-15T20:55:11.795535,1101837,-5549,273,-498,-288,-140,41,90,396,-176
1347,2,2022-09-15T20:55:11.801714,1101842,-5549,273,-498,-288,-140,41,90,396,-176
1348,2,2022-09-15T20:55:11.810967,1101852,-5552,280,-510,-249,-196,-71,90,396,-176
1349,2,2022-09-15T20:55:11.816907,1101858,-5552,280,-510,-249,-196,-71,90,396,-176
1350,2,2022-09-15T20:55:11.824222,1101865,-5552,280,-510,-249,-196,-71,90,396,-176
1351,2,2022-09-15T20:55:11.835698,1101877,-5547,281,-494,-201,-310,-175,94,396,-180
1352,2,2022-09-15T20:55:11.843378,1101885,-5547,281,-494,-201,-310,-175,94,396,-180
1353,2,2022-09-15T20:55:11.851254,1101892,-5529,277,-489,-132,-339,-254,94,396,-180
1354,2,2022-09-15T20:55:11.863243,1101904,-5529,277,-489,-132,-339,-254,94,396,-180
1355,2,2022-09-15T20:55:11.870832,1101912,-5524,274,-486,-90,-345,-192,94,396,-180
1356,2,2022-09-15T20:55:11.880313,1101919,-5524,274,-486,-90,-345,-192,94,396,-180
1357,2,2022-09-15T20:55:11.888402,1101930,-5522,274,-486,-66,-329,-184,94,396,-180
1358,2,2022-09-15T20:55:11.894141,1101935,-5522,274,-486,-66,-329,-184,94,396,-180
1359,2,2022-09-15T20:55:11.900718,1101941,-5522,274,-486,-66,-329,-184,94,396,-180
1360,2,2022-09-15T20:55:11.909895,1101952,-5510,276,-476,-90,-318,-212,94,396,-180
1361,2,2022-09-15T20:55:11.918025,1101960,-5510,276,-476,-90,-318,-212,94,396,-180
1362,2,2022-09-15T20:55:11.926042,1101966,-5510,276,-476,-90,-318,-212,94,396,-180
1363,2,2022-09-15T20:55:11.934091,1101975,-5526,279,-487,-144,-272,-143,94,396,-180
1364,2,2022-09-15T20:55:11.939822,1101981,-5526,279,-487,-144,-272,-143,94,396,-180
1365,2,2022-09-15T20:55:11.946359,1101987,-5526,279,-487,-144,-272,-143,94,396,-180
1366,2,2022-09-15T20:55:11.952779,1101993,-5503,305,-483,-269,-278,-133,93,405,-175
1367,2,2022-09-15T20:55:11.962238,1102004,-5503,305,-483,-269,-278,-133,93,405,-175
1368,2,2022-09-15T20:55:11.970767,1102012,-5523,308,-472,-486,-185,48,93,405,-175
1369,2,2022-09-15T20:55:11.978770,1102018,-5523,308,-472,-486,-185,48,93,405,-175
1370,2,2022-09-15T20:55:11.985803,1102027,-5523,308,-472,-486,-185,48,93,405,-175
1371,2,2022-09-15T20:55:11.992451,1102033,-5520,305,-473,-692,-179,221,93,405,-175
1372,2,2022-09-15T20:55:12.002218,1102043,-5520,305,-473,-692,-179,221,93,405,-175
1373,2,2022-09-15T20:55:12.011235,1102052,-5544,288,-473,-822,-190,376,93,405,-175
1374,2,2022-09-15T20:55:12.019838,1102061,-5544,288,-473,-822,-190,376,93,405,-175
1375,2,2022-09-15T20:55:12.026974,1102067,-5544,288,-473,-822,-190,376,93,405,-175
1376,2,2022-09-15T20:55:12.037549,1102078,-5518,284,-485,-906,-199,146,93,405,-175
1377,2,2022-09-15T20:55:12.044426,1102086,-5518,284,-485,-906,-199,146,93,405,-175
1378,2,2022-09-15T20:55:12.051343,1102092,-5507,293,-494,-909,-43,163,93,405,-175
1379,2,2022-09-15T20:55:12.059824,1102101,-5507,293,-494,-909,-43,163,93,405,-175
1380,2,2022-09-15T20:55:12.066818,1102108,-5526,276,-486,-840,48,268,87,405,-175
1381,2,2022-09-15T20:55:12.077219,1102118,-5526,276,-486,-840,48,268,87,395,-185
1382,2,2022-09-15T20:55:12.085158,1102127,-5526,276,-486,-840,48,268,87,395,-185
1383,2,2022-09-15T20:55:12.093191,1102135,-5520,265,-494,-729,0,265,87,395,-185
1384,2,2022-09-15T20:55:12.099565,1102140,-5520,265,-494,-729,0,265,87,395,-185
1385,2,2022-09-15T20:55:12.109174,1102150,-5497,255,-497,-574,-15,203,87,395,-185
1386,2,2022-09-15T20:55:12.117908,1102159,-5497,255,-497,-574,-15,203,87,395,-185
1387,2,2022-09-15T20:55:12.125542,1102167,-5497,255,-497,-574,-15,203,87,395,-185
1388,2,2022-09-15T20:55:12.135860,1102178,-5545,298,-501,-380,73,194,87,395,-185
1389,2,2022-09-15T20:55:12.142738,1102184,-5545,298,-501,-380,73,194,87,395,-185
1390,2,2022-09-15T20:55:12.150571,1102191,-5526,278,-505,-211,-16,183,87,395,-185
1391,2,2022-09-15T20:55:12.159910,1102200,-5526,278,-505,-211,-16,183,87,395,-185
1392,2,2022-09-15T20:55:12.168584,1102211,-5560,281,-512,-122,-53,96,87,395,-185
1393,2,2022-09-15T20:55:12.177479,1102217,-5560,281,-512,-122,-53,96,87,395,-185
1394,2,2022-09-15T20:55:12.187499,1102229,-5550,278,-499,-91,-157,-78,87,395,-185
1395,2,2022-09-15T20:55:12.196373,1102238,-5550,278,-499,-91,-157,-78,87,395,-185
1396,2,2022-09-15T20:55:12.205907,1102246,-5550,278,-499,-91,-157,-78,87,395,-185
1397,2,2022-09-15T20:55:12.214638,1102257,-5523,308,-502,-98,-152,-261,93,403,-177
1398,2,2022-09-15T20:55:12.220176,1102262,-5523,308,-502,-98,-152,-261,93,403,-177
1399,2,2022-09-15T20:55:12.228074,1102269,-5531,306,-501,-137,-130,-110,93,403,-177
1400,2,2022-09-15T20:55:12.238317,1102279,-5531,306,-501,-137,-130,-110,93,403,-177
1401,2,2022-09-15T20:55:12.246082,1102287,-5531,306,-501,-137,-130,-110,93,403,-177
1402,2,2022-09-15T20:55:12.257260,1102299,-5522,312,-502,-175,-194,-64,93,403,-177
1403,2,2022-09-15T20:55:12.266928,1102308,-5522,312,-502,-175,-194,-64,93,403,-177
1404,2,2022-09-15T20:55:12.274458,1102316,-5514,301,-502,-194,-180,54,93,403,-177
1405,2,2022-09-15T20:55:12.281319,1102322,-5514,301,-502,-194,-180,54,93,403,-177
1406,2,2022-09-15T20:55:12.290638,1102332,-5543,298,-509,-167,-133,84,93,403,-177
1407,2,2022-09-15T20:55:12.296089,1102338,-5543,298,-509,-167,-133,84,93,403,-177
1408,2,2022-09-15T20:55:12.303262,1102345,-5543,298,-509,-167,-133,84,93,403,-177
1409,2,2022-09-15T20:55:12.314331,1102356,-5541,290,-494,-112,-134,-29,93,403,-177
1410,2,2022-09-15T20:55:12.320184,1102361,-5541,290,-494,-112,-134,-29,93,403,-177
1411,2,2022-09-15T20:55:12.327273,1102368,-5541,290,-494,-112,-134,-29,93,403,-177
1412,2,2022-09-15T20:55:12.337842,1102380,-5533,298,-505,-91,-158,-155,86,396,-180
1413,2,2022-09-15T20:55:12.344385,1102386,-5533,298,-505,-91,-158,-155,86,396,-180
1414,2,2022-09-15T20:55:12.351596,1102392,-5529,305,-508,-64,-171,-244,86,396,-180
1415,2,2022-09-15T20:55:12.362150,1102404,-5529,305,-508,-64,-171,-244,86,396,-180
1416,2,2022-09-15T20:55:12.369493,1102411,-5526,300,-511,-83,-182,-269,86,396,-180
1417,2,2022-09-15T20:55:12.377226,1102416,-5526,300,-511,-83,-182,-269,86,396,-180
1418,2,2022-09-15T20:55:12.383276,1102425,-5526,300,-511,-83,-182,-269,86,396,-180
1419,2,2022-09-15T20:55:12.393718,1102435,-5526,300,-511,-83,-182,-269,86,396,-180
1420,2,2022-09-15T20:55:12.400659,1102440,-5526,300,-511,-83,-182,-269,86,396,-180
1421,2,2022-09-15T20:55:12.409712,1102451,-5545,285,-506,-111,-270,-198,86,396,-180
1422,2,2022-09-15T20:55:12.418561,1102460,-5545,285,-506,-111,-270,-198,86,396,-180
1423,2,2022-09-15T20:55:12.425023,1102466,-5545,285,-506,-111,-270,-198,86,396,-180
1424,2,2022-09-15T20:55:12.436524,1102478,-5529,289,-503,-70,-383,-212,86,396,-180
1425,2,2022-09-15T20:55:12.443314,1102485,-5529,289,-503,-70,-383,-212,86,396,-180
1426,2,2022-09-15T20:55:12.451865,1102492,-5521,289,-486,-38,-371,-150,100,402,-182
1427,2,2022-09-15T20:55:12.461117,1102502,-5521,289,-486,-38,-371,-150,100,402,-182
1428,2,2022-09-15T20:55:12.468422,1102510,-5517,278,-498,19,-297,-84,100,402,-182
1429,2,2022-09-15T20:55:12.477108,1102517,-5517,278,-498,19,-297,-84,100,402,-182
1430,2,2022-09-15T20:55:12.483699,1102525,-5517,278,-498,19,-297,-84,100,402,-182
1431,2,2022-09-15T20:55:12.491546,1102533,-5508,300,-505,102,-263,-13,100,402,-182
1432,2,2022-09-15T20:55:12.499427,1102540,-5508,300,-505,102,-263,-13,100,402,-182
1433,2,2022-09-15T20:55:12.510820,1102553,-5519,309,-492,139,-213,59,100,402,-182
1434,2,2022-09-15T20:55:12.517835,1102559,-5519,309,-492,139,-213,59,100,402,-182
1435,2,2022-09-15T20:55:12.524980,1102566,-5519,309,-492,139,-213,59,100,402,-182
1436,2,2022-09-15T20:55:12.534607,1102576,-5524,304,-487,111,-161,43,100,402,-182
1437,2,2022-09-15T20:55:12.541666,1102583,-5524,304,-487,111,-161,43,100,402,-182
1438,2,2022-09-15T20:55:12.549772,1102590,-5527,303,-502,52,-166,-31,100,402,-182
1439,2,2022-09-15T20:55:12.560734,1102602,-5527,303,-502,52,-166,-31,100,402,-182
1440,2,2022-09-15T20:55:12.568312,1102610,-5524,314,-504,-7,-199,-123,91,397,-183
1441,2,2022-09-15T20:55:12.577061,1102617,-5524,314,-504,-7,-199,-123,91,397,-183
1442,2,2022-09-15T20:55:12.584291,1102625,-5524,314,-504,-7,-199,-123,91,397,-183
1443,2,2022-09-15T20:55:12.593216,1102635,-5542,319,-500,-58,-200,-90,91,397,-183
1444,2,2022-09-15T20:55:12.598924,1102641,-5542,319,-500,-58,-200,-90,91,397,-183
1445,2,2022-09-15T20:55:12.611112,1102652,-5541,312,-497,-101,-240,-101,91,397,-183
1446,2,2022-09-15T20:55:12.619910,1102661,-5541,312,-497,-101,-240,-101,91,397,-183
1447,2,2022-09-15T20:55:12.627012,1102668,-5541,312,-497,-101,-240,-101,91,397,-183
1448,2,2022-09-15T20:55:12.637983,1102680,-5538,314,-504,-144,-228,-103,91,397,-183
1449,2,2022-09-15T20:55:12.644555,1102686,-5538,314,-504,-144,-228,-103,91,397,-183
1450,2,2022-09-15T20:55:12.651709,1102693,-5538,312,-502,-176,-258,-148,91,397,-183
1451,2,2022-09-15T20:55:12.661695,1102703,-5538,312,-502,-176,-258,-148,91,397,-183
1452,2,2022-09-15T20:55:12.669273,1102711,-5535,303,-497,-180,-295,-223,91,397,-183
1453,2,2022-09-15T20:55:12.676376,1102716,-5535,303,-497,-180,-295,-223,91,397,-183
1454,2,2022-09-15T20:55:12.683461,1102725,-5535,303,-497,-180,-295,-223,91,397,-183
1455,2,2022-09-15T20:55:12.692034,1102733,-5542,294,-488,-111,-273,-278,98,406,-176
1456,2,2022-09-15T20:55:12.699565,1102740,-5542,294,-488,-111,-273,-278,98,406,-176
1457,2,2022-09-15T20:55:12.711486,1102753,-5523,289,-490,-44,-264,-357,98,406,-176
1458,2,2022-09-15T20:55:12.719949,1102761,-5523,289,-490,-44,-264,-357,98,406,-176
1459,2,2022-09-15T20:55:12.727448,1102769,-5523,289,-490,-44,-264,-357,98,406,-176
1460,2,2022-09-15T20:55:12.736501,1102777,-5528,290,-497,9,-202,-395,98,406,-176
1461,2,2022-09-15T20:55:12.744320,1102785,-5528,290,-497,9,-202,-395,98,406,-176
1462,2,2022-09-15T20:55:12.754877,1102796,-5529,295,-500,43,-198,-447,98,406,-176
1463,2,2022-09-15T20:55:12.760369,1102801,-5529,295,-500,43,-198,-447,98,406,-176
1464,2,2022-09-15T20:55:12.766887,1102809,-5529,295,-500,43,-198,-447,98,406,-176
1465,2,2022-09-15T20:55:12.775090,1102817,-5538,294,-495,1,-217,-442,98,406,-176
1466,2,2022-09-15T20:55:12.780683,1102822,-5538,294,-495,1,-217,-442,98,406,-176
