,imu,server_time,arduino_time,ax,ay,az,gx,gy,gz,mx,my,mz
0,1,2022-09-15T20:40:54.276039,244243,-1231,-471,-130,-2925,-1329,156,358,304,-12
1,1,2022-09-15T20:40:54.393091,244361,-1223,-505,-124,-3519,-2060,349,362,300,-18
2,1,2022-09-15T20:40:54.403008,244371,-1234,-493,-126,-3509,-1999,223,362,300,-18
3,1,2022-09-15T20:40:54.411949,244378,-1234,-493,-126,-3509,-1999,223,362,300,-18
4,1,2022-09-15T20:40:54.420593,244387,-1262,-476,-128,-3543,-1946,289,362,300,-18
5,1,2022-09-15T20:40:54.429773,244397,-1262,-476,-128,-3543,-1946,289,362,300,-18
6,1,2022-09-15T20:40:54.438064,244405,-1262,-476,-128,-3543,-1946,289,362,300,-18
7,1,2022-09-15T20:40:54.445296,244412,-1281,-457,-128,-3597,-1949,631,362,300,-18
8,1,2022-09-15T20:40:54.485431,244450,-1260,-444,-138,-3866,-1997,1344,364,306,-14
9,1,2022-09-15T20:40:54.501864,244466,-1261,-435,-142,-4047,-2019,1353,364,306,-14
10,1,2022-09-15T20:40:54.509225,244476,-1261,-435,-142,-4047,-2019,1353,364,306,-14
11,1,2022-09-15T20:40:54.518797,244486,-1261,-435,-142,-4047,-2019,1353,364,306,-14
12,1,2022-09-15T20:40:54.527450,244493,-1280,-436,-147,-4210,-2073,1293,364,306,-14
13,1,2022-09-15T20:40:54.537988,244504,-1280,-436,-147,-4210,-2073,1293,364,306,-14
14,1,2022-09-15T20:40:54.545307,244512,-1267,-446,-147,-4281,-2195,1374,364,306,-14
15,1,2022-09-15T20:40:54.555518,244523,-1267,-446,-147,-4281,-2195,1374,364,306,-14
16,1,2022-09-15T20:40:54.562650,244530,-1243,-460,-152,-4329,-2253,1339,364,306,-14
17,1,2022-09-15T20:40:54.571356,244539,-1243,-460,-152,-4329,-2253,1339,364,306,-14
18,1,2022-09-15T20:40:54.577073,244545,-1243,-460,-152,-4329,-2253,1339,364,306,-14
19,1,2022-09-15T20:40:54.583861,244551,-1239,-463,-146,-4345,-2248,1098,364,306,-14
20,1,2022-09-15T20:40:54.589820,244558,-1239,-463,-146,-4345,-2248,1098,364,306,-14
21,1,2022-09-15T20:40:54.598859,244567,-1245,-469,-138,-4334,-2214,816,364,306,-14
22,1,2022-09-15T20:40:54.606823,244574,-1245,-469,-138,-4334,-2214,816,364,306,-14
23,1,2022-09-15T20:40:54.615346,244583,-1245,-469,-138,-4334,-2214,816,364,306,-14
24,1,2022-09-15T20:40:54.623129,244591,-1252,-461,-144,-4259,-2236,685,364,306,-14
25,1,2022-09-15T20:40:54.631046,244599,-1252,-461,-144,-4259,-2236,685,364,306,-14
26,1,2022-09-15T20:40:54.639481,244608,-1266,-462,-148,-4179,-2216,657,364,306,-14
27,1,2022-09-15T20:40:54.646522,244614,-1266,-462,-148,-4179,-2216,657,364,306,-14
28,1,2022-09-15T20:40:54.655028,244623,-1266,-462,-148,-4179,-2216,657,364,306,-14
29,1,2022-09-15T20:40:54.661480,244629,-1262,-466,-147,-4107,-2245,801,364,306,-14
30,1,2022-09-15T20:40:54.669538,244637,-1262,-466,-147,-4107,-2245,801,364,306,-14
31,1,2022-09-15T20:40:54.677478,244645,-1262,-466,-147,-4107,-2245,801,364,306,-14
32,1,2022-09-15T20:40:54.683598,244652,-1264,-461,-147,-4090,-2226,898,364,306,-14
33,1,2022-09-15T20:40:54.690291,244658,-1264,-461,-147,-4090,-2226,898,364,306,-14
34,1,2022-09-15T20:40:54.698840,244667,-1262,-448,-149,-4099,-2192,973,364,306,-14
35,1,2022-09-15T20:40:54.706435,244674,-1262,-448,-149,-4099,-2192,973,364,306,-14
36,1,2022-09-15T20:40:54.712860,244680,-1262,-448,-149,-4099,-2192,973,364,306,-14
37,1,2022-09-15T20:40:54.721131,244689,-1269,-456,-140,-4129,-2144,1067,366,310,-24
38,1,2022-09-15T20:40:54.727311,244695,-1269,-456,-140,-4129,-2144,1067,366,310,-24
39,1,2022-09-15T20:40:54.734488,244703,-1269,-456,-140,-4129,-2144,1067,366,310,-24
40,1,2022-09-15T20:40:54.741537,244709,-1263,-455,-147,-4170,-2169,1112,366,310,-24
41,1,2022-09-15T20:40:54.749920,244717,-1263,-455,-147,-4170,-2169,1112,366,310,-24
42,1,2022-09-15T20:40:54.757477,244725,-1263,-455,-147,-4170,-2169,1112,366,310,-24
43,1,2022-09-15T20:40:54.765584,244733,-1250,-454,-145,-4225,-2208,1132,366,310,-24
44,1,2022-09-15T20:40:54.772550,244741,-1250,-454,-145,-4225,-2208,1132,366,310,-24
45,1,2022-09-15T20:40:54.780439,244748,-1269,-443,-134,-4318,-2189,972,366,310,-24
46,1,2022-09-15T20:40:54.788144,244756,-1269,-443,-134,-4318,-2189,972,366,310,-24
47,1,2022-09-15T20:40:54.796167,244763,-1269,-443,-134,-4318,-2189,972,366,310,-24
48,1,2022-09-15T20:40:54.803344,244771,-1284,-428,-142,-4336,-2276,943,366,310,-24
49,1,2022-09-15T20:40:54.812039,244781,-1284,-428,-142,-4336,-2276,943,366,310,-24
50,1,2022-09-15T20:40:54.820852,244788,-1244,-443,-155,-4403,-2503,1104,366,310,-24
51,1,2022-09-15T20:40:54.830744,244798,-1244,-443,-155,-4403,-2503,1104,366,310,-24
52,1,2022-09-15T20:40:54.839312,244807,-1251,-448,-147,-4540,-2386,778,369,303,-21
53,1,2022-09-15T20:40:54.848506,244815,-1251,-448,-147,-4540,-2386,778,369,303,-21
54,1,2022-09-15T20:40:54.856889,244826,-1251,-448,-147,-4540,-2386,778,369,303,-21
55,1,2022-09-15T20:40:54.864016,244832,-1260,-449,-137,-4462,-2304,634,369,303,-21
56,1,2022-09-15T20:40:54.871759,244840,-1260,-449,-137,-4462,-2304,634,369,303,-21
57,1,2022-09-15T20:40:54.880858,244848,-1257,-455,-136,-4390,-2298,578,369,303,-21
58,1,2022-09-15T20:40:54.890365,244857,-1257,-455,-136,-4390,-2298,578,369,303,-21
59,1,2022-09-15T20:40:54.899942,244868,-1284,-446,-134,-4313,-2164,449,369,303,-21
60,1,2022-09-15T20:40:54.908352,244877,-1284,-446,-134,-4313,-2164,449,369,303,-21
61,1,2022-09-15T20:40:54.916650,244884,-1284,-446,-134,-4313,-2164,449,369,303,-21
62,1,2022-09-15T20:40:54.944443,244893,-1289,-443,-140,-4046,-2029,766,369,303,-21
63,1,2022-09-15T20:40:54.952243,244921,-1265,-458,-126,-3861,-1991,1048,369,303,-21
64,1,2022-09-15T20:40:54.957681,244926,-1270,-450,-117,-3835,-2063,1211,361,299,-27
65,1,2022-09-15T20:40:54.963904,244932,-1270,-450,-117,-3835,-2063,1211,361,299,-27
66,1,2022-09-15T20:40:54.970171,244938,-1270,-450,-117,-3835,-2063,1211,361,299,-27
67,1,2022-09-15T20:40:54.978537,244946,-1273,-410,-132,-3830,-2047,1346,361,299,-27
68,1,2022-09-15T20:40:54.986509,244955,-1273,-410,-132,-3830,-2047,1346,361,299,-27
69,1,2022-09-15T20:40:54.995592,244964,-1273,-410,-132,-3830,-2047,1346,361,299,-27
70,1,2022-09-15T20:40:55.002044,244970,-1301,-366,-158,-4002,-1893,1596,361,299,-27
71,1,2022-09-15T20:40:55.009755,244978,-1301,-366,-158,-4002,-1893,1596,361,299,-27
72,1,2022-09-15T20:40:55.017442,244985,-1301,-366,-158,-4002,-1893,1596,361,299,-27
73,1,2022-09-15T20:40:55.025162,244993,-1299,-386,-156,-4313,-1830,2160,361,299,-27
74,1,2022-09-15T20:40:55.034008,245002,-1299,-386,-156,-4313,-1830,2160,361,299,-27
75,1,2022-09-15T20:40:55.042310,245010,-1280,-400,-164,-4690,-1954,2302,361,299,-27
76,1,2022-09-15T20:40:55.049291,245017,-1280,-400,-164,-4690,-1954,2302,361,299,-27
77,1,2022-09-15T20:40:55.057327,245025,-1280,-400,-164,-4690,-1954,2302,361,299,-27
78,1,2022-09-15T20:40:55.063927,245031,-1285,-400,-157,-5017,-2033,1978,361,299,-27
79,1,2022-09-15T20:40:55.073560,245041,-1285,-400,-157,-5017,-2033,1978,361,299,-27
80,1,2022-09-15T20:40:55.130616,245099,-1272,-434,-149,-5079,-2126,191,362,298,-42
81,1,2022-09-15T20:40:55.139366,245107,-1292,-429,-139,-4662,-2109,-136,362,298,-42
82,1,2022-09-15T20:40:55.148779,245116,-1292,-429,-139,-4662,-2109,-136,362,298,-42
83,1,2022-09-15T20:40:55.155916,245125,-1292,-429,-139,-4662,-2109,-136,362,298,-42
84,1,2022-09-15T20:40:55.162251,245131,-1304,-435,-145,-4137,-2039,-78,362,298,-42
85,1,2022-09-15T20:40:55.168657,245137,-1304,-435,-145,-4137,-2039,-78,362,298,-42
86,1,2022-09-15T20:40:55.177053,245145,-1304,-435,-145,-4137,-2039,-78,362,298,-42
87,1,2022-09-15T20:40:55.183031,245151,-1293,-439,-152,-3620,-1933,332,362,298,-42
88,1,2022-09-15T20:40:55.188398,245157,-1293,-439,-152,-3620,-1933,332,362,298,-42
89,1,2022-09-15T20:40:55.194775,245163,-1293,-439,-152,-3620,-1933,332,362,298,-42
90,1,2022-09-15T20:40:55.201341,245169,-1284,-427,-156,-3312,-1762,578,362,298,-42
91,1,2022-09-15T20:40:55.207582,245176,-1284,-427,-156,-3312,-1762,578,362,298,-42
92,1,2022-09-15T20:40:55.215761,245184,-1284,-427,-156,-3312,-1762,578,362,298,-42
93,1,2022-09-15T20:40:55.223429,245191,-1287,-420,-151,-3225,-1586,636,370,302,-40
94,1,2022-09-15T20:40:55.231101,245199,-1287,-420,-151,-3225,-1586,636,370,302,-40
95,1,2022-09-15T20:40:55.238502,245207,-1279,-424,-154,-3169,-1534,625,370,302,-40
96,1,2022-09-15T20:40:55.245641,245214,-1279,-424,-154,-3169,-1534,625,370,302,-40
97,1,2022-09-15T20:40:55.269455,245222,-1279,-424,-154,-3169,-1534,625,370,302,-40
98,1,2022-09-15T20:40:55.275660,245243,-1285,-415,-157,-3174,-1511,386,370,302,-40
99,1,2022-09-15T20:40:55.287507,245255,-1299,-406,-164,-3178,-1525,263,370,302,-40
100,1,2022-09-15T20:40:55.294191,245262,-1299,-406,-164,-3178,-1525,263,370,302,-40
101,1,2022-09-15T20:40:55.300515,245269,-1296,-421,-154,-3157,-1566,349,370,302,-40
102,1,2022-09-15T20:40:55.306634,245275,-1296,-421,-154,-3157,-1566,349,370,302,-40
103,1,2022-09-15T20:40:55.313509,245282,-1296,-421,-154,-3157,-1566,349,370,302,-40
104,1,2022-09-15T20:40:55.319763,245287,-1281,-427,-147,-3096,-1619,413,370,302,-40
105,1,2022-09-15T20:40:55.326418,245295,-1281,-427,-147,-3096,-1619,413,370,302,-40
106,1,2022-09-15T20:40:55.332586,245301,-1281,-427,-147,-3096,-1619,413,370,302,-40
107,1,2022-09-15T20:40:55.338137,245307,-1276,-422,-147,-3001,-1636,335,359,295,-39
108,1,2022-09-15T20:40:55.344503,245312,-1276,-422,-147,-3001,-1636,335,359,295,-39
109,1,2022-09-15T20:40:55.351190,245319,-1276,-422,-147,-3001,-1636,335,359,295,-39
110,1,2022-09-15T20:40:55.358694,245327,-1271,-411,-158,-2936,-1630,184,359,295,-39
111,1,2022-09-15T20:40:55.366517,245335,-1271,-411,-158,-2936,-1630,184,359,295,-39
112,1,2022-09-15T20:40:55.372820,245341,-1271,-411,-158,-2936,-1630,184,359,295,-39
113,1,2022-09-15T20:40:55.378373,245347,-1279,-403,-157,-2936,-1551,110,359,295,-39
114,1,2022-09-15T20:40:55.383895,245352,-1279,-403,-157,-2936,-1551,110,359,295,-39
115,1,2022-09-15T20:40:55.389679,245358,-1279,-403,-157,-2936,-1551,110,359,295,-39
116,1,2022-09-15T20:40:55.396529,245364,-1279,-403,-157,-2936,-1551,110,359,295,-39
117,1,2022-09-15T20:40:55.402282,245371,-1276,-413,-150,-2955,-1446,227,359,295,-39
118,1,2022-09-15T20:40:55.408535,245378,-1276,-413,-150,-2955,-1446,227,359,295,-39
119,1,2022-09-15T20:40:55.421945,245391,-1295,-418,-149,-2981,-1330,313,359,295,-39
120,1,2022-09-15T20:40:55.427499,245396,-1295,-418,-149,-2981,-1330,313,359,295,-39
121,1,2022-09-15T20:40:55.433817,245403,-1295,-418,-149,-2981,-1330,313,359,295,-39
122,1,2022-09-15T20:40:55.439324,245408,-1294,-398,-158,-2991,-1345,460,359,295,-39
123,1,2022-09-15T20:40:55.447069,245415,-1294,-398,-158,-2991,-1345,460,359,295,-39
124,1,2022-09-15T20:40:55.452649,245422,-1294,-398,-158,-2991,-1345,460,359,295,-39
125,1,2022-09-15T20:40:55.458427,245427,-1290,-406,-163,-3078,-1272,623,370,298,-40
126,1,2022-09-15T20:40:55.465048,245434,-1290,-406,-163,-3078,-1272,623,370,298,-40
127,1,2022-09-15T20:40:55.473148,245441,-1290,-406,-163,-3078,-1272,623,370,298,-40
128,1,2022-09-15T20:40:55.478494,245447,-1284,-422,-156,-3127,-1083,775,370,298,-40
129,1,2022-09-15T20:40:55.483661,245452,-1284,-422,-156,-3127,-1083,775,370,298,-40
130,1,2022-09-15T20:40:55.489222,245457,-1284,-422,-156,-3127,-1083,775,370,298,-40
131,1,2022-09-15T20:40:55.495178,245464,-1284,-422,-156,-3127,-1083,775,370,298,-40
132,1,2022-09-15T20:40:55.501233,245470,-1283,-435,-157,-3041,-895,881,370,298,-40
133,1,2022-09-15T20:40:55.506478,245475,-1283,-435,-157,-3041,-895,881,370,298,-40
134,1,2022-09-15T20:40:55.512449,245481,-1283,-435,-157,-3041,-895,881,370,298,-40
135,1,2022-09-15T20:40:55.518799,245486,-1282,-439,-150,-2710,-856,982,370,298,-40
136,1,2022-09-15T20:40:55.524648,245493,-1282,-439,-150,-2710,-856,982,370,298,-40
137,1,2022-09-15T20:40:55.530021,245498,-1282,-439,-150,-2710,-856,982,370,298,-40
138,1,2022-09-15T20:40:55.537388,245506,-1282,-439,-150,-2710,-856,982,370,298,-40
139,1,2022-09-15T20:40:55.543182,245512,-1262,-431,-161,-2484,-937,975,370,298,-40
140,1,2022-09-15T20:40:55.550316,245519,-1262,-431,-161,-2484,-937,975,370,298,-40
141,1,2022-09-15T20:40:55.555907,245524,-1262,-431,-161,-2484,-937,975,370,298,-40
142,1,2022-09-15T20:40:55.561573,245530,-1287,-431,-157,-2603,-773,656,370,298,-40
143,1,2022-09-15T20:40:55.567804,245536,-1287,-431,-157,-2603,-773,656,370,298,-40
144,1,2022-09-15T20:40:55.575047,245543,-1287,-431,-157,-2603,-773,656,370,298,-40
145,1,2022-09-15T20:40:55.580638,245550,-1312,-422,-157,-2623,-696,585,374,306,-46
146,1,2022-09-15T20:40:55.586657,245555,-1312,-422,-157,-2623,-696,585,374,306,-46
147,1,2022-09-15T20:40:55.594835,245562,-1312,-422,-157,-2623,-696,585,374,306,-46
148,1,2022-09-15T20:40:55.601121,245569,-1302,-422,-158,-2512,-747,814,374,306,-46
149,1,2022-09-15T20:40:55.607998,245577,-1302,-422,-158,-2512,-747,814,374,306,-46
150,1,2022-09-15T20:40:55.614857,245583,-1302,-422,-158,-2512,-747,814,374,306,-46
151,1,2022-09-15T20:40:55.622016,245590,-1292,-414,-164,-2383,-773,856,374,306,-46
152,1,2022-09-15T20:40:55.627707,245597,-1292,-414,-164,-2383,-773,856,374,306,-46
153,1,2022-09-15T20:40:55.635004,245603,-1292,-414,-164,-2383,-773,856,374,306,-46
154,1,2022-09-15T20:40:55.643709,245609,-1279,-408,-166,-2269,-736,729,374,306,-46
155,1,2022-09-15T20:40:55.650052,245617,-1279,-408,-166,-2269,-736,729,374,306,-46
156,1,2022-09-15T20:40:55.657644,245626,-1291,-400,-169,-2330,-690,432,374,306,-46
157,1,2022-09-15T20:40:55.663869,245632,-1291,-400,-169,-2330,-690,432,374,306,-46
158,1,2022-09-15T20:40:55.673279,245642,-1291,-400,-169,-2330,-690,432,374,306,-46
159,1,2022-09-15T20:40:55.678651,245647,-1319,-381,-173,-2432,-667,60,374,306,-46
160,1,2022-09-15T20:40:55.684327,245653,-1319,-381,-173,-2432,-667,60,374,306,-46
161,1,2022-09-15T20:40:55.690817,245659,-1319,-381,-173,-2432,-667,60,374,306,-46
162,1,2022-09-15T20:40:55.699626,245667,-1318,-383,-179,-2391,-757,153,374,306,-46
163,1,2022-09-15T20:40:55.705887,245673,-1318,-383,-179,-2391,-757,153,374,306,-46
164,1,2022-09-15T20:40:55.711674,245680,-1318,-383,-179,-2391,-757,153,374,306,-46
165,1,2022-09-15T20:40:55.717971,245686,-1310,-397,-165,-2332,-718,273,374,306,-46
166,1,2022-09-15T20:40:55.724160,245692,-1310,-397,-165,-2332,-718,273,377,303,-49
167,1,2022-09-15T20:40:55.730366,245699,-1310,-397,-165,-2332,-718,273,377,303,-49
168,1,2022-09-15T20:40:55.737108,245705,-1310,-397,-165,-2332,-718,273,377,303,-49
169,1,2022-09-15T20:40:55.743989,245711,-1308,-405,-168,-2253,-699,286,377,303,-49
170,1,2022-09-15T20:40:55.751968,245721,-1308,-405,-168,-2253,-699,286,377,303,-49
171,1,2022-09-15T20:40:55.757431,245726,-1308,-405,-168,-2253,-699,286,377,303,-49
172,1,2022-09-15T20:40:55.763710,245732,-1308,-405,-168,-2253,-699,286,377,303,-49
173,1,2022-09-15T20:40:55.769997,245738,-1308,-405,-168,-2253,-699,286,377,303,-49
174,1,2022-09-15T20:40:55.778031,245746,-1308,-405,-168,-2253,-699,286,377,303,-49
175,1,2022-09-15T20:40:55.783832,245752,-1301,-402,-166,-1884,-702,233,377,303,-49
176,1,2022-09-15T20:40:55.789174,245757,-1301,-402,-166,-1884,-702,233,377,303,-49
177,1,2022-09-15T20:40:55.797839,245767,-1302,-387,-160,-1768,-657,182,377,303,-49
178,1,2022-09-15T20:40:55.803461,245772,-1302,-387,-160,-1768,-657,182,377,303,-49
179,1,2022-09-15T20:40:55.809000,245778,-1302,-387,-160,-1768,-657,182,377,303,-49
180,1,2022-09-15T20:40:55.814196,245783,-1302,-387,-160,-1768,-657,182,377,303,-49
181,1,2022-09-15T20:40:55.820159,245788,-1300,-389,-159,-1684,-565,230,377,303,-49
182,1,2022-09-15T20:40:55.826077,245795,-1300,-389,-159,-1684,-565,230,377,303,-49
183,1,2022-09-15T20:40:55.831113,245800,-1300,-389,-159,-1684,-565,230,377,303,-49
184,1,2022-09-15T20:40:55.837103,245806,-1300,-389,-159,-1684,-565,230,377,303,-49
185,1,2022-09-15T20:40:55.843452,245811,-1299,-387,-157,-1614,-458,258,369,305,-43
186,1,2022-09-15T20:40:55.848700,245818,-1299,-387,-157,-1614,-458,258,369,305,-43
187,1,2022-09-15T20:40:55.853960,245823,-1299,-387,-157,-1614,-458,258,369,305,-43
188,1,2022-09-15T20:40:55.859436,245828,-1299,-387,-157,-1563,-364,242,369,305,-43
189,1,2022-09-15T20:40:55.865096,245833,-1299,-387,-157,-1563,-364,242,369,305,-43
190,1,2022-09-15T20:40:55.870718,245839,-1299,-387,-157,-1563,-364,242,369,305,-43
191,1,2022-09-15T20:40:55.876424,245846,-1299,-387,-157,-1563,-364,242,369,305,-43
192,1,2022-09-15T20:40:55.881679,245851,-1291,-383,-161,-1539,-334,133,369,305,-43
193,1,2022-09-15T20:40:55.887135,245856,-1291,-383,-161,-1539,-334,133,369,305,-43
194,1,2022-09-15T20:40:55.893442,245861,-1291,-383,-161,-1539,-334,133,369,305,-43
195,1,2022-09-15T20:40:55.899174,245867,-1296,-385,-156,-1512,-299,-75,369,305,-43
196,1,2022-09-15T20:40:55.904736,245873,-1296,-385,-156,-1512,-299,-75,369,305,-43
197,1,2022-09-15T20:40:55.910213,245879,-1296,-385,-156,-1512,-299,-75,369,305,-43
198,1,2022-09-15T20:40:55.917747,245885,-1296,-385,-156,-1512,-299,-75,369,305,-43
199,1,2022-09-15T20:40:55.923420,245893,-1303,-377,-158,-1517,-298,-238,369,305,-43
200,1,2022-09-15T20:40:55.928545,245898,-1303,-377,-158,-1517,-298,-238,369,305,-43
201,1,2022-09-15T20:40:55.933829,245903,-1303,-377,-158,-1517,-298,-238,369,305,-43
202,1,2022-09-15T20:40:55.939642,245908,-1320,-382,-157,-1605,-300,-373,369,305,-43
203,1,2022-09-15T20:40:55.947841,245916,-1320,-382,-157,-1605,-300,-373,369,305,-43
204,1,2022-09-15T20:40:55.953117,245922,-1320,-382,-157,-1605,-300,-373,369,305,-43
205,1,2022-09-15T20:40:55.958456,245927,-1310,-383,-157,-1653,-360,-399,368,296,-40
206,1,2022-09-15T20:40:55.964298,245933,-1310,-383,-157,-1653,-360,-399,368,296,-40
207,1,2022-09-15T20:40:55.970349,245939,-1310,-383,-157,-1653,-360,-399,368,296,-40
208,1,2022-09-15T20:40:55.977253,245946,-1310,-383,-157,-1653,-360,-399,368,296,-40
209,1,2022-09-15T20:40:55.982576,245952,-1302,-388,-158,-1638,-392,-446,368,296,-40
210,1,2022-09-15T20:40:55.987826,245957,-1302,-388,-158,-1638,-392,-446,368,296,-40
211,1,2022-09-15T20:40:55.993600,245962,-1302,-388,-158,-1638,-392,-446,368,296,-40
212,1,2022-09-15T20:40:56.000412,245968,-1304,-384,-160,-1613,-470,-501,368,296,-40
213,1,2022-09-15T20:40:56.006778,245975,-1304,-384,-160,-1613,-470,-501,368,296,-40
214,1,2022-09-15T20:40:56.014785,245983,-1304,-384,-160,-1613,-470,-501,368,296,-40
215,1,2022-09-15T20:40:56.021336,245989,-1307,-388,-156,-1541,-458,-590,368,296,-40
216,1,2022-09-15T20:40:56.027682,245996,-1307,-388,-156,-1541,-458,-590,368,296,-40
217,1,2022-09-15T20:40:56.033914,246002,-1307,-388,-156,-1541,-458,-590,368,296,-40
218,1,2022-09-15T20:40:56.039377,246008,-1314,-395,-153,-1408,-437,-581,368,296,-40
219,1,2022-09-15T20:40:56.045700,246013,-1314,-395,-153,-1408,-437,-581,368,296,-40
220,1,2022-09-15T20:40:56.050868,246020,-1314,-395,-153,-1408,-437,-581,368,296,-40
221,1,2022-09-15T20:40:56.058188,246026,-1314,-395,-153,-1408,-437,-581,368,296,-40
222,1,2022-09-15T20:40:56.063616,246032,-1312,-393,-152,-1282,-511,-401,368,296,-40
223,1,2022-09-15T20:40:56.072592,246040,-1312,-393,-152,-1282,-511,-401,368,296,-40
224,1,2022-09-15T20:40:56.080464,246048,-1306,-393,-147,-1258,-581,-226,375,305,-39
225,1,2022-09-15T20:40:56.088284,246056,-1306,-393,-147,-1258,-581,-226,375,305,-39
226,1,2022-09-15T20:40:56.097094,246065,-1306,-393,-147,-1258,-581,-226,375,305,-39
227,1,2022-09-15T20:40:56.103339,246072,-1328,-370,-145,-1373,-597,-273,375,305,-39
228,1,2022-09-15T20:40:56.108806,246078,-1328,-370,-145,-1373,-597,-273,375,305,-39
229,1,2022-09-15T20:40:56.115235,246083,-1328,-370,-145,-1373,-597,-273,375,305,-39
230,1,2022-09-15T20:40:56.122580,246090,-1329,-365,-138,-1412,-650,14,375,305,-39
231,1,2022-09-15T20:40:56.129489,246097,-1329,-365,-138,-1412,-650,14,375,305,-39
232,1,2022-09-15T20:40:56.136671,246106,-1329,-365,-138,-1412,-650,14,375,305,-39
233,1,2022-09-15T20:40:56.143179,246111,-1290,-382,-144,-1566,-762,396,375,305,-39
234,1,2022-09-15T20:40:56.149323,246118,-1290,-382,-144,-1566,-762,396,375,305,-39
235,1,2022-09-15T20:40:56.154727,246124,-1290,-382,-144,-1566,-762,396,375,305,-39
236,1,2022-09-15T20:40:56.160185,246129,-1304,-397,-130,-1817,-608,203,375,305,-39
237,1,2022-09-15T20:40:56.165696,246134,-1304,-397,-130,-1817,-608,203,375,305,-39
238,1,2022-09-15T20:40:56.171995,246139,-1304,-397,-130,-1817,-608,203,375,305,-39
239,1,2022-09-15T20:40:56.177892,246147,-1304,-397,-130,-1817,-608,203,375,305,-39
240,1,2022-09-15T20:40:56.183221,246152,-1289,-395,-139,-1863,-682,155,375,305,-39
241,1,2022-09-15T20:40:56.200390,246157,-1289,-395,-139,-1863,-682,155,375,305,-39
242,1,2022-09-15T20:40:56.205550,246174,-1286,-406,-141,-1971,-651,-4,375,305,-39
243,1,2022-09-15T20:40:56.213107,246181,-1286,-406,-141,-1971,-651,-4,375,305,-39
244,1,2022-09-15T20:40:56.219290,246188,-1302,-399,-134,-1967,-513,-113,372,306,-46
245,1,2022-09-15T20:40:56.225160,246194,-1302,-399,-134,-1967,-513,-113,372,306,-46
246,1,2022-09-15T20:40:56.230181,246199,-1302,-399,-134,-1967,-513,-113,372,306,-46
247,1,2022-09-15T20:40:56.237064,246206,-1302,-399,-134,-1967,-513,-113,372,306,-46
248,1,2022-09-15T20:40:56.242989,246211,-1292,-403,-143,-1791,-441,120,372,306,-46
249,1,2022-09-15T20:40:56.248987,246217,-1292,-403,-143,-1791,-441,120,372,306,-46
250,1,2022-09-15T20:40:56.254229,246223,-1292,-403,-143,-1791,-441,120,372,306,-46
251,1,2022-09-15T20:40:56.259681,246228,-1295,-406,-144,-1724,-355,191,372,306,-46
252,1,2022-09-15T20:40:56.267289,246236,-1295,-406,-144,-1724,-355,191,372,306,-46
253,1,2022-09-15T20:40:56.274599,246243,-1295,-406,-144,-1724,-355,191,372,306,-46
254,1,2022-09-15T20:40:56.280086,246249,-1301,-396,-150,-1678,-391,199,372,306,-46
255,1,2022-09-15T20:40:56.285594,246254,-1301,-396,-150,-1678,-391,199,372,306,-46
256,1,2022-09-15T20:40:56.291787,246260,-1301,-396,-150,-1678,-391,199,372,306,-46
257,1,2022-09-15T20:40:56.299076,246267,-1312,-393,-146,-1654,-391,230,372,306,-46
258,1,2022-09-15T20:40:56.304252,246274,-1312,-393,-146,-1654,-391,230,372,306,-46
259,1,2022-09-15T20:40:56.309871,246279,-1312,-393,-146,-1654,-391,230,372,306,-46
260,1,2022-09-15T20:40:56.328292,246297,-1312,-386,-150,-1697,-422,327,372,306,-46
261,1,2022-09-15T20:40:56.333587,246302,-1312,-386,-150,-1697,-422,327,372,306,-46
262,1,2022-09-15T20:40:56.338968,246307,-1319,-374,-146,-1761,-466,323,372,304,-48
263,1,2022-09-15T20:40:56.345067,246313,-1319,-374,-146,-1761,-466,323,372,304,-48
264,1,2022-09-15T20:40:56.350585,246320,-1319,-374,-146,-1761,-466,323,372,304,-48
265,1,2022-09-15T20:40:56.357738,246326,-1319,-374,-146,-1761,-466,323,372,304,-48
266,1,2022-09-15T20:40:56.362615,246332,-1314,-365,-151,-1832,-531,258,372,304,-48
267,1,2022-09-15T20:40:56.368828,246337,-1314,-365,-151,-1832,-531,258,372,304,-48
268,1,2022-09-15T20:40:56.375915,246345,-1314,-365,-151,-1832,-531,258,372,304,-48
269,1,2022-09-15T20:40:56.381319,246350,-1312,-369,-148,-1874,-620,260,372,304,-48
270,1,2022-09-15T20:40:56.386742,246355,-1312,-369,-148,-1874,-620,260,372,304,-48
271,1,2022-09-15T20:40:56.394163,246362,-1312,-369,-148,-1874,-620,260,372,304,-48
272,1,2022-09-15T20:40:56.399414,246368,-1317,-366,-150,-1930,-649,217,372,304,-48
273,1,2022-09-15T20:40:56.405170,246374,-1317,-366,-150,-1930,-649,217,372,304,-48
274,1,2022-09-15T20:40:56.410562,246379,-1317,-366,-150,-1930,-649,217,372,304,-48
275,1,2022-09-15T20:40:56.418492,246386,-1317,-366,-150,-1930,-649,217,372,304,-48
276,1,2022-09-15T20:40:56.423918,246392,-1309,-375,-152,-1952,-662,265,372,304,-48
277,1,2022-09-15T20:40:56.429646,246398,-1309,-375,-152,-1952,-662,265,372,304,-48
278,1,2022-09-15T20:40:56.436005,246405,-1309,-375,-152,-1952,-662,265,372,304,-48
279,1,2022-09-15T20:40:56.442444,246410,-1307,-381,-145,-1952,-650,244,372,304,-48
280,1,2022-09-15T20:40:56.449288,246417,-1307,-381,-145,-1952,-650,244,372,304,-48
281,1,2022-09-15T20:40:56.455680,246425,-1307,-381,-145,-1952,-650,244,372,304,-48
282,1,2022-09-15T20:40:56.461211,246429,-1293,-385,-145,-1925,-660,184,370,306,-50
283,1,2022-09-15T20:40:56.466962,246435,-1293,-385,-145,-1925,-660,184,370,306,-50
284,1,2022-09-15T20:40:56.474452,246444,-1293,-385,-145,-1925,-660,184,370,306,-50
285,1,2022-09-15T20:40:56.479840,246449,-1293,-385,-145,-1925,-660,184,370,306,-50
286,1,2022-09-15T20:40:56.485685,246454,-1293,-385,-145,-1925,-660,184,370,306,-50
287,1,2022-09-15T20:40:56.491630,246460,-1293,-385,-145,-1925,-660,184,370,306,-50
288,1,2022-09-15T20:40:56.499120,246468,-1312,-380,-150,-1858,-566,55,370,306,-50
289,1,2022-09-15T20:40:56.504536,246473,-1312,-380,-150,-1858,-566,55,370,306,-50
290,1,2022-09-15T20:40:56.509869,246478,-1312,-380,-150,-1858,-566,55,370,306,-50
291,1,2022-09-15T20:40:56.515685,246484,-1312,-380,-150,-1858,-566,55,370,306,-50
292,1,2022-09-15T20:40:56.522388,246490,-1319,-388,-150,-1833,-496,163,370,306,-50
293,1,2022-09-15T20:40:56.528723,246497,-1319,-388,-150,-1833,-496,163,370,306,-50
294,1,2022-09-15T20:40:56.534178,246503,-1319,-388,-150,-1833,-496,163,370,306,-50
295,1,2022-09-15T20:40:56.539787,246508,-1309,-389,-144,-1783,-457,270,370,306,-50
296,1,2022-09-15T20:40:56.545854,246514,-1309,-389,-144,-1783,-457,270,370,306,-50
297,1,2022-09-15T20:40:56.551455,246520,-1309,-389,-144,-1783,-457,270,370,306,-50
298,1,2022-09-15T20:40:56.558123,246526,-1299,-392,-157,-1763,-453,233,370,306,-50
299,1,2022-09-15T20:40:56.565662,246535,-1299,-392,-157,-1763,-453,233,370,306,-50
300,1,2022-09-15T20:40:56.571324,246540,-1299,-392,-157,-1763,-453,233,370,306,-50
301,1,2022-09-15T20:40:56.576920,246546,-1299,-392,-157,-1763,-453,233,370,306,-50
302,1,2022-09-15T20:40:56.582315,246551,-1297,-386,-153,-1731,-434,92,367,297,-49
303,1,2022-09-15T20:40:56.588486,246557,-1297,-386,-153,-1731,-434,92,367,297,-49
304,1,2022-09-15T20:40:56.595931,246564,-1297,-386,-153,-1731,-434,92,367,297,-49
305,1,2022-09-15T20:40:56.601596,246571,-1309,-382,-152,-1679,-333,-105,367,297,-49
306,1,2022-09-15T20:40:56.606761,246576,-1309,-382,-152,-1679,-333,-105,367,297,-49
307,1,2022-09-15T20:40:56.612184,246581,-1309,-382,-152,-1679,-333,-105,367,297,-49
308,1,2022-09-15T20:40:56.619498,246587,-1309,-387,-151,-1585,-333,-176,367,297,-49
309,1,2022-09-15T20:40:56.626380,246595,-1309,-387,-151,-1585,-333,-176,367,297,-49
310,1,2022-09-15T20:40:56.631686,246600,-1309,-387,-151,-1585,-333,-176,367,297,-49
311,1,2022-09-15T20:40:56.637546,246605,-1309,-387,-151,-1585,-333,-176,367,297,-49
312,1,2022-09-15T20:40:56.643722,246611,-1309,-384,-153,-1480,-382,-234,367,297,-49
313,1,2022-09-15T20:40:56.649068,246618,-1309,-384,-153,-1480,-382,-234,367,297,-49
314,1,2022-09-15T20:40:56.654525,246623,-1309,-384,-153,-1480,-382,-234,367,297,-49
315,1,2022-09-15T20:40:56.660163,246629,-1309,-377,-157,-1407,-454,-328,367,297,-49
316,1,2022-09-15T20:40:56.665988,246634,-1309,-377,-157,-1407,-454,-328,367,297,-49
317,1,2022-09-15T20:40:56.672427,246641,-1309,-377,-157,-1407,-454,-328,367,297,-49
318,1,2022-09-15T20:40:56.678055,246646,-1309,-377,-157,-1407,-454,-328,367,297,-49
319,1,2022-09-15T20:40:56.684098,246653,-1314,-366,-159,-1397,-528,-389,367,297,-49
320,1,2022-09-15T20:40:56.689934,246659,-1314,-366,-159,-1397,-528,-389,367,297,-49
321,1,2022-09-15T20:40:56.696895,246666,-1314,-366,-159,-1397,-528,-389,367,297,-49
322,1,2022-09-15T20:40:56.702719,246671,-1306,-368,-154,-1417,-545,-355,367,297,-49
323,1,2022-09-15T20:40:56.708174,246677,-1306,-368,-154,-1417,-545,-355,367,297,-49
324,1,2022-09-15T20:40:56.713733,246682,-1306,-368,-154,-1417,-545,-355,367,297,-49
325,1,2022-09-15T20:40:56.720386,246688,-1309,-373,-148,-1495,-589,-321,365,305,-43
326,1,2022-09-15T20:40:56.726151,246694,-1309,-373,-148,-1495,-589,-321,365,305,-43
327,1,2022-09-15T20:40:56.731221,246701,-1309,-373,-148,-1495,-589,-321,365,305,-43
328,1,2022-09-15T20:40:56.738444,246707,-1309,-373,-148,-1495,-589,-321,365,305,-43
329,1,2022-09-15T20:40:56.744312,246713,-1304,-384,-149,-1583,-621,-310,365,305,-43
330,1,2022-09-15T20:40:56.749923,246719,-1304,-384,-149,-1583,-621,-310,365,305,-43
331,1,2022-09-15T20:40:56.755013,246724,-1304,-384,-149,-1583,-621,-310,365,305,-43
332,1,2022-09-15T20:40:56.760458,246729,-1309,-388,-147,-1635,-637,-311,365,305,-43
333,1,2022-09-15T20:40:56.767359,246735,-1309,-388,-147,-1635,-637,-311,365,305,-43
334,1,2022-09-15T20:40:56.774406,246744,-1309,-388,-147,-1635,-637,-311,365,305,-43
335,1,2022-09-15T20:40:56.779791,246749,-1304,-394,-143,-1614,-666,-234,365,305,-43
336,1,2022-09-15T20:40:56.785063,246754,-1304,-394,-143,-1614,-666,-234,365,305,-43
337,1,2022-09-15T20:40:56.790420,246759,-1304,-394,-143,-1614,-666,-234,365,305,-43
338,1,2022-09-15T20:40:56.796597,246765,-1304,-394,-143,-1614,-666,-234,365,305,-43
339,1,2022-09-15T20:40:56.802172,246771,-1309,-394,-142,-1607,-655,-255,365,305,-43
340,1,2022-09-15T20:40:56.807801,246776,-1309,-394,-142,-1607,-655,-255,365,305,-43
341,1,2022-09-15T20:40:56.814256,246784,-1309,-394,-142,-1607,-655,-255,365,305,-43
342,1,2022-09-15T20:40:56.821737,246790,-1321,-395,-129,-1569,-642,-149,365,305,-43
343,1,2022-09-15T20:40:56.827130,246796,-1321,-395,-129,-1569,-642,-149,365,305,-43
344,1,2022-09-15T20:40:56.834356,246803,-1321,-395,-129,-1569,-642,-149,365,305,-43
345,1,2022-09-15T20:40:56.840472,246809,-1299,-389,-132,-1558,-676,20,375,307,-47
346,1,2022-09-15T20:40:56.847433,246815,-1299,-389,-132,-1558,-676,20,375,307,-47
347,1,2022-09-15T20:40:56.853261,246821,-1299,-389,-132,-1558,-676,20,375,307,-47
348,1,2022-09-15T20:40:56.859584,246828,-1291,-400,-134,-1575,-622,105,375,307,-47
349,1,2022-09-15T20:40:56.865873,246834,-1291,-400,-134,-1575,-622,105,375,307,-47
350,1,2022-09-15T20:40:56.872198,246840,-1291,-400,-134,-1575,-622,105,375,307,-47
351,1,2022-09-15T20:40:56.878017,246846,-1291,-400,-134,-1575,-622,105,375,307,-47
352,1,2022-09-15T20:40:56.883679,246852,-1273,-403,-137,-1554,-522,1,375,307,-47
353,1,2022-09-15T20:40:56.890518,246859,-1273,-403,-137,-1554,-522,1,375,307,-47
354,1,2022-09-15T20:40:56.896874,246864,-1273,-403,-137,-1554,-522,1,375,307,-47
355,1,2022-09-15T20:40:56.902732,246872,-1285,-389,-134,-1523,-403,-183,375,307,-47
356,1,2022-09-15T20:40:56.908174,246877,-1285,-389,-134,-1523,-403,-183,375,307,-47
357,1,2022-09-15T20:40:56.913936,246882,-1285,-389,-134,-1523,-403,-183,375,307,-47
358,1,2022-09-15T20:40:56.920393,246888,-1296,-393,-129,-1453,-354,-147,375,307,-47
359,1,2022-09-15T20:40:56.926591,246895,-1296,-393,-129,-1453,-354,-147,375,307,-47
360,1,2022-09-15T20:40:56.932194,246901,-1296,-393,-129,-1453,-354,-147,375,307,-47
361,1,2022-09-15T20:40:56.937721,246906,-1296,-393,-129,-1453,-354,-147,375,307,-47
362,1,2022-09-15T20:40:56.944178,246913,-1295,-400,-129,-1397,-333,-49,375,307,-47
363,1,2022-09-15T20:40:56.950168,246919,-1295,-400,-129,-1397,-333,-49,375,307,-47
364,1,2022-09-15T20:40:56.956932,246926,-1295,-400,-129,-1397,-333,-49,375,307,-47
365,1,2022-09-15T20:40:56.962624,246931,-1302,-396,-123,-1355,-287,-8,383,303,-43
366,1,2022-09-15T20:40:56.968873,246937,-1302,-396,-123,-1355,-287,-8,383,303,-43
367,1,2022-09-15T20:40:56.974240,246943,-1302,-396,-123,-1355,-287,-8,383,303,-43
368,1,2022-09-15T20:40:56.979729,246948,-1312,-389,-123,-1297,-332,57,383,303,-43
369,1,2022-09-15T20:40:56.985489,246955,-1312,-389,-123,-1297,-332,57,383,303,-43
370,1,2022-09-15T20:40:56.991056,246960,-1312,-389,-123,-1297,-332,57,383,303,-43
371,1,2022-09-15T20:40:56.997393,246966,-1312,-389,-123,-1297,-332,57,383,303,-43
372,1,2022-09-15T20:40:57.002880,246972,-1310,-387,-126,-1296,-450,100,383,303,-43
373,1,2022-09-15T20:40:57.008185,246977,-1310,-387,-126,-1296,-450,100,383,303,-43
374,1,2022-09-15T20:40:57.013703,246982,-1310,-387,-126,-1296,-450,100,383,303,-43
375,1,2022-09-15T20:40:57.020439,246988,-1310,-387,-126,-1296,-450,100,383,303,-43
376,1,2022-09-15T20:40:57.025907,246994,-1310,-387,-126,-1296,-450,100,383,303,-43
377,1,2022-09-15T20:40:57.031115,247000,-1310,-387,-126,-1296,-450,100,383,303,-43
378,1,2022-09-15T20:40:57.037279,247007,-1310,-387,-126,-1296,-450,100,383,303,-43
379,1,2022-09-15T20:40:57.044396,247012,-1285,-388,-132,-1386,-526,-74,383,303,-43
380,1,2022-09-15T20:40:57.050344,247019,-1285,-388,-132,-1386,-526,-74,383,303,-43
381,1,2022-09-15T20:40:57.055666,247024,-1285,-388,-132,-1386,-526,-74,383,303,-43
382,1,2022-09-15T20:40:57.061250,247030,-1293,-385,-125,-1455,-405,-179,383,303,-43
383,1,2022-09-15T20:40:57.067727,247035,-1293,-385,-125,-1455,-405,-179,383,303,-43
384,1,2022-09-15T20:40:57.073743,247042,-1293,-385,-125,-1455,-405,-179,383,303,-43
385,1,2022-09-15T20:40:57.079431,247048,-1294,-375,-128,-1487,-314,-172,367,299,-41
386,1,2022-09-15T20:40:57.085062,247054,-1294,-375,-128,-1487,-314,-172,367,299,-41
387,1,2022-09-15T20:40:57.090113,247059,-1294,-375,-128,-1487,-314,-172,367,299,-41
388,1,2022-09-15T20:40:57.097720,247066,-1294,-375,-128,-1487,-314,-172,367,299,-41
389,1,2022-09-15T20:40:57.103241,247072,-1290,-375,-134,-1496,-233,-118,367,299,-41
390,1,2022-09-15T20:40:57.109679,247078,-1290,-375,-134,-1496,-233,-118,367,299,-41
391,1,2022-09-15T20:40:57.115164,247084,-1290,-375,-134,-1496,-233,-118,367,299,-41
392,1,2022-09-15T20:40:57.122359,247090,-1305,-378,-128,-1500,-109,-133,367,299,-41
393,1,2022-09-15T20:40:57.129223,247098,-1305,-378,-128,-1500,-109,-133,367,299,-41
394,1,2022-09-15T20:40:57.135760,247105,-1305,-378,-128,-1500,-109,-133,367,299,-41
395,1,2022-09-15T20:40:57.141566,247110,-1314,-382,-129,-1484,-86,-137,367,299,-41
396,1,2022-09-15T20:40:57.149434,247118,-1314,-382,-129,-1484,-86,-137,367,299,-41
397,1,2022-09-15T20:40:57.156238,247126,-1314,-382,-129,-1484,-86,-137,367,299,-41
398,1,2022-09-15T20:40:57.161245,247130,-1312,-394,-130,-1452,-152,-153,367,299,-41
399,1,2022-09-15T20:40:57.202854,247172,-1297,-408,-131,-1310,-300,-284,367,301,-47
400,1,2022-09-15T20:40:57.208308,247177,-1297,-408,-131,-1310,-300,-284,367,301,-47
401,1,2022-09-15T20:40:57.214140,247183,-1297,-408,-131,-1310,-300,-284,367,301,-47
402,1,2022-09-15T20:40:57.220542,247188,-1290,-397,-134,-1205,-327,-312,367,301,-47
403,1,2022-09-15T20:40:57.228464,247197,-1290,-397,-134,-1205,-327,-312,367,301,-47
404,1,2022-09-15T20:40:57.234219,247202,-1290,-397,-134,-1205,-327,-312,367,301,-47
405,1,2022-09-15T20:40:57.240081,247208,-1293,-381,-140,-1162,-294,-275,367,301,-47
406,1,2022-09-15T20:40:57.247014,247215,-1293,-381,-140,-1162,-294,-275,367,301,-47
407,1,2022-09-15T20:40:57.252859,247222,-1293,-381,-140,-1162,-294,-275,367,301,-47
408,1,2022-09-15T20:40:57.258517,247227,-1310,-376,-133,-1184,-253,-181,367,301,-47
409,1,2022-09-15T20:40:57.263880,247233,-1310,-376,-133,-1184,-253,-181,367,301,-47
410,1,2022-09-15T20:40:57.269952,247238,-1310,-376,-133,-1184,-253,-181,367,301,-47
411,1,2022-09-15T20:40:57.277204,247246,-1310,-376,-133,-1184,-253,-181,367,301,-47
412,1,2022-09-15T20:40:57.282570,247251,-1302,-385,-138,-1233,-285,-31,367,301,-47
413,1,2022-09-15T20:40:57.287980,247257,-1302,-385,-138,-1233,-285,-31,367,301,-47
414,1,2022-09-15T20:40:57.295763,247264,-1302,-385,-138,-1233,-285,-31,367,301,-47
415,1,2022-09-15T20:40:57.301327,247270,-1302,-385,-138,-1233,-285,-31,367,301,-47
416,1,2022-09-15T20:40:57.306713,247276,-1302,-385,-138,-1233,-285,-31,367,301,-47
417,1,2022-09-15T20:40:57.311934,247281,-1302,-385,-138,-1233,-285,-31,367,301,-47
418,1,2022-09-15T20:40:57.317796,247286,-1302,-385,-138,-1233,-285,-31,367,301,-47
419,1,2022-09-15T20:40:57.323259,247292,-1300,-386,-136,-1341,-303,-23,367,301,-47
420,1,2022-09-15T20:40:57.328742,247298,-1300,-386,-136,-1341,-303,-23,367,301,-47
421,1,2022-09-15T20:40:57.334504,247303,-1300,-386,-136,-1341,-303,-23,367,301,-47
422,1,2022-09-15T20:40:57.340170,247309,-1297,-386,-129,-1380,-303,-101,369,307,-47
423,1,2022-09-15T20:40:57.348590,247317,-1297,-386,-129,-1380,-303,-101,369,307,-47
424,1,2022-09-15T20:40:57.354273,247322,-1297,-386,-129,-1380,-303,-101,369,307,-47
425,1,2022-09-15T20:40:57.360073,247328,-1302,-395,-127,-1415,-294,-163,369,307,-47
426,1,2022-09-15T20:40:57.366181,247334,-1302,-395,-127,-1415,-294,-163,369,307,-47
427,1,2022-09-15T20:40:57.372147,247341,-1302,-395,-127,-1415,-294,-163,369,307,-47
428,1,2022-09-15T20:40:57.379154,247348,-1296,-407,-126,-1428,-338,-208,369,307,-47
429,1,2022-09-15T20:40:57.385416,247355,-1296,-407,-126,-1428,-338,-208,369,307,-47
430,1,2022-09-15T20:40:57.390799,247360,-1296,-407,-126,-1428,-338,-208,369,307,-47
431,1,2022-09-15T20:40:57.396824,247365,-1296,-407,-126,-1428,-338,-208,369,307,-47
432,1,2022-09-15T20:40:57.402831,247371,-1291,-404,-130,-1411,-344,-236,369,307,-47
433,1,2022-09-15T20:40:57.408557,247377,-1291,-404,-130,-1411,-344,-236,369,307,-47
434,1,2022-09-15T20:40:57.414790,247384,-1291,-404,-130,-1411,-344,-236,369,307,-47
435,1,2022-09-15T20:40:57.421863,247390,-1290,-400,-127,-1414,-335,-239,369,307,-47
436,1,2022-09-15T20:40:57.427517,247396,-1290,-400,-127,-1414,-335,-239,369,307,-47
437,1,2022-09-15T20:40:57.434592,247403,-1290,-400,-127,-1414,-335,-239,369,307,-47
438,1,2022-09-15T20:40:57.440698,247409,-1289,-393,-141,-1441,-311,-209,369,307,-47
439,1,2022-09-15T20:40:57.448851,247417,-1289,-393,-141,-1441,-311,-209,369,307,-47
440,1,2022-09-15T20:40:57.454133,247424,-1289,-393,-141,-1441,-311,-209,369,307,-47
441,1,2022-09-15T20:40:57.460323,247429,-1295,-391,-124,-1498,-280,-172,368,300,-46
442,1,2022-09-15T20:40:57.466348,247435,-1295,-391,-124,-1498,-280,-172,368,300,-46
443,1,2022-09-15T20:40:57.472158,247441,-1295,-391,-124,-1498,-280,-172,368,300,-46
444,1,2022-09-15T20:40:57.477957,247446,-1295,-391,-124,-1498,-280,-172,368,300,-46
445,1,2022-09-15T20:40:57.483701,247452,-1296,-397,-129,-1518,-268,-150,368,300,-46
446,1,2022-09-15T20:40:57.490522,247458,-1296,-397,-129,-1518,-268,-150,368,300,-46
447,1,2022-09-15T20:40:57.496660,247465,-1296,-397,-129,-1518,-268,-150,368,300,-46
448,1,2022-09-15T20:40:57.502897,247472,-1299,-402,-131,-1478,-235,-111,368,300,-46
449,1,2022-09-15T20:40:57.508989,247478,-1299,-402,-131,-1478,-235,-111,368,300,-46
450,1,2022-09-15T20:40:57.514612,247483,-1299,-402,-131,-1478,-235,-111,368,300,-46
451,1,2022-09-15T20:40:57.521067,247489,-1300,-394,-131,-1436,-199,-83,368,300,-46
452,1,2022-09-15T20:40:57.527509,247496,-1300,-394,-131,-1436,-199,-83,368,300,-46
453,1,2022-09-15T20:40:57.532917,247501,-1300,-394,-131,-1436,-199,-83,368,300,-46
454,1,2022-09-15T20:40:57.538692,247507,-1313,-385,-140,-1394,-204,-76,368,300,-46
455,1,2022-09-15T20:40:57.547103,247516,-1313,-385,-140,-1394,-204,-76,368,300,-46
456,1,2022-09-15T20:40:57.552423,247522,-1313,-385,-140,-1394,-204,-76,368,300,-46
457,1,2022-09-15T20:40:57.558336,247527,-1309,-387,-135,-1418,-260,-74,368,300,-46
458,1,2022-09-15T20:40:57.564665,247534,-1309,-387,-135,-1418,-260,-74,368,300,-46
459,1,2022-09-15T20:40:57.570599,247538,-1309,-387,-135,-1418,-260,-74,368,300,-46
460,1,2022-09-15T20:40:57.576640,247545,-1309,-387,-135,-1418,-260,-74,368,300,-46
461,1,2022-09-15T20:40:57.582152,247550,-1295,-398,-138,-1466,-277,-116,371,299,-43
462,1,2022-09-15T20:40:57.587877,247557,-1295,-398,-138,-1466,-277,-116,371,299,-43
463,1,2022-09-15T20:40:57.595411,247563,-1295,-398,-138,-1466,-277,-116,371,299,-43
464,1,2022-09-15T20:40:57.601171,247570,-1297,-405,-132,-1506,-201,-231,371,299,-43
465,1,2022-09-15T20:40:57.607514,247575,-1297,-405,-132,-1506,-201,-231,371,299,-43
466,1,2022-09-15T20:40:57.613377,247582,-1297,-405,-132,-1506,-201,-231,371,299,-43
467,1,2022-09-15T20:40:57.619811,247587,-1291,-400,-132,-1488,-171,-281,371,299,-43
468,1,2022-09-15T20:40:57.625638,247595,-1291,-400,-132,-1488,-171,-281,371,299,-43
469,1,2022-09-15T20:40:57.631255,247600,-1291,-400,-132,-1488,-171,-281,371,299,-43
470,1,2022-09-15T20:40:57.637926,247607,-1291,-400,-132,-1488,-171,-281,371,299,-43
471,1,2022-09-15T20:40:57.644540,247612,-1298,-398,-143,-1467,-170,-291,371,299,-43
472,1,2022-09-15T20:40:57.650615,247619,-1298,-398,-143,-1467,-170,-291,371,299,-43
473,1,2022-09-15T20:40:57.655962,247625,-1298,-398,-143,-1467,-170,-291,371,299,-43
474,1,2022-09-15T20:40:57.661304,247630,-1294,-403,-138,-1421,-214,-206,371,299,-43
475,1,2022-09-15T20:40:57.667445,247635,-1294,-403,-138,-1421,-214,-206,371,299,-43
476,1,2022-09-15T20:40:57.673584,247643,-1294,-403,-138,-1421,-214,-206,371,299,-43
477,1,2022-09-15T20:40:57.679059,247648,-1294,-398,-139,-1372,-259,-188,371,299,-43
478,1,2022-09-15T20:40:57.685260,247654,-1294,-398,-139,-1372,-259,-188,371,299,-43
479,1,2022-09-15T20:40:57.690763,247659,-1294,-398,-139,-1372,-259,-188,371,299,-43
480,1,2022-09-15T20:40:57.696773,247665,-1294,-398,-139,-1372,-259,-188,371,299,-43
481,1,2022-09-15T20:40:57.703036,247671,-1295,-399,-134,-1318,-332,-160,371,295,-49
482,1,2022-09-15T20:40:57.709487,247678,-1295,-399,-134,-1318,-332,-160,371,295,-49
483,1,2022-09-15T20:40:57.714683,247684,-1295,-399,-134,-1318,-332,-160,371,295,-49
484,1,2022-09-15T20:40:57.721138,247689,-1281,-400,-127,-1311,-416,-171,371,295,-49
485,1,2022-09-15T20:40:57.726474,247696,-1281,-400,-127,-1311,-416,-171,371,295,-49
486,1,2022-09-15T20:40:57.731558,247700,-1281,-400,-127,-1311,-416,-171,371,295,-49
487,1,2022-09-15T20:40:57.737214,247706,-1281,-400,-127,-1311,-416,-171,371,295,-49
488,1,2022-09-15T20:40:57.743453,247711,-1282,-399,-130,-1346,-446,-298,371,295,-49
489,1,2022-09-15T20:40:57.749543,247718,-1282,-399,-130,-1346,-446,-298,371,295,-49
490,1,2022-09-15T20:40:57.754685,247724,-1282,-399,-130,-1346,-446,-298,371,295,-49
491,1,2022-09-15T20:40:57.760080,247729,-1276,-403,-131,-1372,-463,-375,371,295,-49
492,1,2022-09-15T20:40:57.766658,247736,-1276,-403,-131,-1372,-463,-375,371,295,-49
493,1,2022-09-15T20:40:57.772806,247741,-1276,-403,-131,-1372,-463,-375,371,295,-49
494,1,2022-09-15T20:40:57.779670,247748,-1292,-401,-126,-1372,-404,-421,371,295,-49
495,1,2022-09-15T20:40:57.784994,247754,-1292,-401,-126,-1372,-404,-421,371,295,-49
496,1,2022-09-15T20:40:57.790135,247759,-1292,-401,-126,-1372,-404,-421,371,295,-49
497,1,2022-09-15T20:40:57.798237,247767,-1292,-401,-126,-1372,-404,-421,371,295,-49
498,1,2022-09-15T20:40:57.803808,247773,-1289,-399,-127,-1360,-425,-338,371,295,-49
499,1,2022-09-15T20:40:57.809315,247778,-1289,-399,-127,-1360,-425,-338,371,295,-49
500,1,2022-09-15T20:40:57.814953,247783,-1289,-399,-127,-1360,-425,-338,371,295,-49
501,1,2022-09-15T20:40:57.820838,247789,-1273,-407,-129,-1384,-428,-286,371,295,-49
502,1,2022-09-15T20:40:57.826211,247795,-1273,-407,-129,-1384,-428,-286,371,295,-49
503,1,2022-09-15T20:40:57.831692,247801,-1273,-407,-129,-1384,-428,-286,371,295,-49
504,1,2022-09-15T20:40:57.837139,247805,-1273,-407,-129,-1384,-428,-286,371,295,-49
505,1,2022-09-15T20:40:57.842958,247812,-1280,-414,-124,-1422,-354,-366,372,300,-46
506,1,2022-09-15T20:40:57.849943,247818,-1280,-414,-124,-1422,-354,-366,372,300,-46
507,1,2022-09-15T20:40:57.855165,247824,-1280,-414,-124,-1422,-354,-366,372,300,-46
508,1,2022-09-15T20:40:57.861576,247830,-1276,-416,-122,-1449,-313,-428,372,300,-46
509,1,2022-09-15T20:40:57.867624,247836,-1276,-416,-122,-1449,-313,-428,372,300,-46
510,1,2022-09-15T20:40:57.873131,247841,-1276,-416,-122,-1449,-313,-428,372,300,-46
511,1,2022-09-15T20:40:57.880236,247849,-1273,-430,-118,-1473,-315,-485,372,300,-46
512,1,2022-09-15T20:40:57.886064,247855,-1273,-430,-118,-1473,-315,-485,372,300,-46
513,1,2022-09-15T20:40:57.891959,247861,-1273,-430,-118,-1473,-315,-485,372,300,-46
514,1,2022-09-15T20:40:57.898431,247866,-1273,-430,-118,-1473,-315,-485,372,300,-46
515,1,2022-09-15T20:40:57.903958,247873,-1272,-427,-119,-1448,-313,-525,372,300,-46
516,1,2022-09-15T20:40:57.909530,247878,-1272,-427,-119,-1448,-313,-525,372,300,-46
517,1,2022-09-15T20:40:57.915279,247884,-1272,-427,-119,-1448,-313,-525,372,300,-46
518,1,2022-09-15T20:40:57.922235,247889,-1277,-420,-126,-1442,-274,-582,372,300,-46
519,1,2022-09-15T20:40:57.928367,247897,-1277,-420,-126,-1442,-274,-582,372,300,-46
520,1,2022-09-15T20:40:57.934416,247904,-1277,-420,-126,-1442,-274,-582,372,300,-46
521,1,2022-09-15T20:40:57.939732,247909,-1278,-425,-124,-1430,-227,-495,372,300,-46
522,1,2022-09-15T20:40:57.949005,247917,-1278,-425,-124,-1430,-227,-495,372,300,-46
523,1,2022-09-15T20:40:57.954653,247923,-1278,-425,-124,-1430,-227,-495,372,300,-46
524,1,2022-09-15T20:40:57.960045,247928,-1277,-434,-118,-1405,-187,-355,365,303,-41
525,1,2022-09-15T20:40:57.965385,247934,-1277,-434,-118,-1405,-187,-355,365,303,-41
526,1,2022-09-15T20:40:57.971301,247940,-1277,-434,-118,-1405,-187,-355,365,303,-41
527,1,2022-09-15T20:40:57.978307,247947,-1274,-438,-125,-1391,-144,-284,365,303,-41
528,1,2022-09-15T20:40:57.984419,247953,-1274,-438,-125,-1391,-144,-284,365,303,-41
529,1,2022-09-15T20:40:57.990295,247959,-1274,-438,-125,-1391,-144,-284,365,303,-41
530,1,2022-09-15T20:40:57.998116,247967,-1274,-438,-125,-1391,-144,-284,365,303,-41
531,1,2022-09-15T20:40:58.003359,247972,-1274,-437,-118,-1388,-116,-304,365,303,-41
532,1,2022-09-15T20:40:58.009945,247980,-1274,-437,-118,-1388,-116,-304,365,303,-41
533,1,2022-09-15T20:40:58.016670,247986,-1274,-437,-118,-1388,-116,-304,365,303,-41
534,1,2022-09-15T20:40:58.024041,247992,-1272,-440,-122,-1407,-114,-321,365,303,-41
535,1,2022-09-15T20:40:58.029932,247999,-1272,-440,-122,-1407,-114,-321,365,303,-41
536,1,2022-09-15T20:40:58.035215,248004,-1272,-440,-122,-1407,-114,-321,365,303,-41
537,1,2022-09-15T20:40:58.041188,248009,-1278,-445,-128,-1397,-88,-277,365,303,-41
538,1,2022-09-15T20:40:58.047633,248015,-1278,-445,-128,-1397,-88,-277,365,303,-41
539,1,2022-09-15T20:40:58.053454,248023,-1278,-445,-128,-1397,-88,-277,365,303,-41
540,1,2022-09-15T20:40:58.059170,248028,-1271,-448,-130,-1349,-43,-202,365,303,-41
541,1,2022-09-15T20:40:58.066737,248035,-1271,-448,-130,-1349,-43,-202,365,303,-41
542,1,2022-09-15T20:40:58.072795,248042,-1271,-448,-130,-1349,-43,-202,365,303,-41
543,1,2022-09-15T20:40:58.078162,248047,-1271,-448,-130,-1349,-43,-202,365,303,-41
544,1,2022-09-15T20:40:58.083181,248052,-1266,-437,-137,-1262,35,-141,370,298,-36
545,1,2022-09-15T20:40:58.089100,248057,-1266,-437,-137,-1262,35,-141,370,298,-36
546,1,2022-09-15T20:40:58.095333,248062,-1266,-437,-137,-1262,35,-141,370,298,-36
547,1,2022-09-15T20:40:58.101884,248070,-1271,-420,-149,-1189,101,-77,370,298,-36
548,1,2022-09-15T20:40:58.108311,248078,-1271,-420,-149,-1189,101,-77,370,298,-36
549,1,2022-09-15T20:40:58.114541,248084,-1271,-420,-149,-1189,101,-77,370,298,-36
550,1,2022-09-15T20:40:58.121132,248089,-1289,-409,-151,-1180,142,-14,370,298,-36
551,1,2022-09-15T20:40:58.127612,248095,-1289,-409,-151,-1180,142,-14,370,298,-36
552,1,2022-09-15T20:40:58.133003,248102,-1289,-409,-151,-1180,142,-14,370,298,-36
553,1,2022-09-15T20:40:58.138462,248108,-1296,-405,-146,-1202,63,113,370,298,-36
554,1,2022-09-15T20:40:58.144893,248113,-1296,-405,-146,-1202,63,113,370,298,-36
555,1,2022-09-15T20:40:58.150373,248120,-1296,-405,-146,-1202,63,113,370,298,-36
556,1,2022-09-15T20:40:58.155500,248125,-1296,-405,-146,-1202,63,113,370,298,-36
557,1,2022-09-15T20:40:58.161757,248130,-1287,-415,-145,-1257,-108,154,370,298,-36
558,1,2022-09-15T20:40:58.168108,248136,-1287,-415,-145,-1257,-108,154,370,298,-36
559,1,2022-09-15T20:40:58.173592,248142,-1287,-415,-145,-1257,-108,154,370,298,-36
560,1,2022-09-15T20:40:58.178999,248147,-1273,-422,-139,-1357,-272,19,370,298,-36
561,1,2022-09-15T20:40:58.184914,248154,-1273,-422,-139,-1357,-272,19,370,298,-36
562,1,2022-09-15T20:40:58.190035,248160,-1273,-422,-139,-1357,-272,19,370,298,-36
563,1,2022-09-15T20:40:58.198555,248165,-1273,-422,-139,-1357,-272,19,370,298,-36
564,1,2022-09-15T20:40:58.204280,248173,-1266,-439,-130,-1464,-353,-195,377,307,-41
565,1,2022-09-15T20:40:58.209746,248178,-1266,-439,-130,-1464,-353,-195,377,307,-41
566,1,2022-09-15T20:40:58.215246,248184,-1266,-439,-130,-1464,-353,-195,377,307,-41
567,1,2022-09-15T20:40:58.222151,248190,-1266,-455,-124,-1507,-441,-433,377,307,-41
568,1,2022-09-15T20:40:58.227754,248197,-1266,-455,-124,-1507,-441,-433,377,307,-41
569,1,2022-09-15T20:40:58.233861,248202,-1266,-455,-124,-1507,-441,-433,377,307,-41
570,1,2022-09-15T20:40:58.238969,248208,-1260,-455,-133,-1502,-513,-552,377,307,-41
571,1,2022-09-15T20:40:58.245637,248213,-1260,-455,-133,-1502,-513,-552,377,307,-41
572,1,2022-09-15T20:40:58.251078,248220,-1260,-455,-133,-1502,-513,-552,377,307,-41
573,1,2022-09-15T20:40:58.257171,248226,-1260,-455,-133,-1502,-513,-552,377,307,-41
574,1,2022-09-15T20:40:58.262781,248231,-1265,-451,-136,-1518,-335,-555,377,307,-41
575,1,2022-09-15T20:40:58.269739,248238,-1265,-451,-136,-1518,-335,-555,377,307,-41
576,1,2022-09-15T20:40:58.275930,248245,-1265,-451,-136,-1518,-335,-555,377,307,-41
577,1,2022-09-15T20:40:58.281352,248250,-1307,-443,-134,-1494,-93,-398,377,307,-41
578,1,2022-09-15T20:40:58.287544,248257,-1307,-443,-134,-1494,-93,-398,377,307,-41
579,1,2022-09-15T20:40:58.293402,248262,-1307,-443,-134,-1494,-93,-398,377,307,-41
580,1,2022-09-15T20:40:58.299214,248267,-1300,-431,-135,-1443,-172,74,377,307,-41
581,1,2022-09-15T20:40:58.305092,248273,-1300,-431,-135,-1443,-172,74,377,307,-41
582,1,2022-09-15T20:40:58.310161,248280,-1300,-431,-135,-1443,-172,74,377,307,-41
583,1,2022-09-15T20:40:58.320010,248286,-1300,-431,-135,-1443,-172,74,377,307,-41
584,1,2022-09-15T20:40:58.325923,248295,-1285,-418,-148,-1459,-217,468,377,307,-41
585,1,2022-09-15T20:40:58.331693,248300,-1285,-418,-148,-1459,-217,468,377,307,-41
586,1,2022-09-15T20:40:58.337301,248306,-1285,-418,-148,-1459,-217,468,377,307,-41
587,1,2022-09-15T20:40:58.343926,248311,-1274,-413,-157,-1483,-203,662,365,295,-37
588,1,2022-09-15T20:40:58.351290,248321,-1274,-413,-157,-1483,-203,662,365,295,-37
589,1,2022-09-15T20:40:58.356236,248326,-1274,-413,-157,-1483,-203,662,365,295,-37
590,1,2022-09-15T20:40:58.361893,248331,-1278,-391,-164,-1532,-149,650,365,295,-37
591,1,2022-09-15T20:40:58.369946,248338,-1278,-391,-164,-1532,-149,650,365,295,-37
592,1,2022-09-15T20:40:58.377385,248346,-1278,-391,-164,-1532,-149,650,365,295,-37
593,1,2022-09-15T20:40:58.383004,248351,-1297,-382,-162,-1529,-129,593,365,295,-37
594,1,2022-09-15T20:40:58.389598,248358,-1297,-382,-162,-1529,-129,593,365,295,-37
595,1,2022-09-15T20:40:58.396937,248366,-1297,-382,-162,-1529,-129,593,365,295,-37
596,1,2022-09-15T20:40:58.403100,248371,-1298,-385,-152,-1519,-199,515,365,295,-37
597,1,2022-09-15T20:40:58.408049,248377,-1298,-385,-152,-1519,-199,515,365,295,-37
598,1,2022-09-15T20:40:58.413693,248382,-1298,-385,-152,-1519,-199,515,365,295,-37
599,1,2022-09-15T20:40:58.420034,248388,-1298,-397,-152,-1498,-305,331,365,295,-37
600,1,2022-09-15T20:40:58.426437,248394,-1298,-397,-152,-1498,-305,331,365,295,-37
601,1,2022-09-15T20:40:58.431786,248401,-1298,-397,-152,-1498,-305,331,365,295,-37
602,1,2022-09-15T20:40:58.438204,248408,-1298,-397,-152,-1498,-305,331,365,295,-37
603,1,2022-09-15T20:40:58.444567,248413,-1282,-418,-141,-1462,-420,65,365,295,-37
604,1,2022-09-15T20:40:58.449992,248419,-1282,-418,-141,-1462,-420,65,365,295,-37
605,1,2022-09-15T20:40:58.456617,248426,-1282,-418,-141,-1462,-420,65,365,295,-37
606,1,2022-09-15T20:40:58.462243,248431,-1293,-427,-130,-1418,-431,-271,377,299,-43
607,1,2022-09-15T20:40:58.468651,248436,-1293,-427,-130,-1418,-431,-271,377,299,-43
608,1,2022-09-15T20:40:58.474818,248443,-1293,-427,-130,-1418,-431,-271,377,299,-43
609,1,2022-09-15T20:40:58.481782,248451,-1287,-436,-125,-1320,-504,-373,377,299,-43
610,1,2022-09-15T20:40:58.487541,248456,-1287,-436,-125,-1320,-504,-373,377,299,-43
611,1,2022-09-15T20:40:58.493481,248462,-1287,-436,-125,-1320,-504,-373,377,299,-43
612,1,2022-09-15T20:40:58.499631,248468,-1270,-434,-134,-1213,-520,-381,377,299,-43
613,1,2022-09-15T20:40:58.506149,248475,-1270,-434,-134,-1213,-520,-381,377,299,-43
614,1,2022-09-15T20:40:58.511555,248480,-1270,-434,-134,-1213,-520,-381,377,299,-43
615,1,2022-09-15T20:40:58.517315,248485,-1270,-434,-134,-1213,-520,-381,377,299,-43
616,1,2022-09-15T20:40:58.523572,248492,-1270,-434,-134,-1213,-520,-381,377,299,-43
617,1,2022-09-15T20:40:58.529162,248499,-1270,-434,-134,-1213,-520,-381,377,299,-43
618,1,2022-09-15T20:40:58.535292,248505,-1270,-434,-134,-1213,-520,-381,377,299,-43
619,1,2022-09-15T20:40:58.541447,248510,-1289,-404,-129,-1181,-264,-264,377,299,-43
620,1,2022-09-15T20:40:58.547494,248515,-1289,-404,-129,-1181,-264,-264,377,299,-43
621,1,2022-09-15T20:40:58.552775,248522,-1289,-404,-129,-1181,-264,-264,377,299,-43
622,1,2022-09-15T20:40:58.558080,248527,-1289,-404,-129,-1181,-264,-264,377,299,-43
623,1,2022-09-15T20:40:58.563294,248532,-1293,-393,-134,-1258,-222,-103,377,299,-43
624,1,2022-09-15T20:40:58.569493,248538,-1293,-393,-134,-1258,-222,-103,377,299,-43
625,1,2022-09-15T20:40:58.576338,248546,-1293,-393,-134,-1258,-222,-103,377,299,-43
626,1,2022-09-15T20:40:58.617934,248551,-1291,-402,-127,-1315,-209,39,375,295,-47
627,1,2022-09-15T20:40:58.652108,248592,-1286,-402,-127,-1364,-154,27,375,295,-47
628,1,2022-09-15T20:40:58.665612,248633,-1253,-425,-138,-1344,-136,-308,375,295,-47
629,1,2022-09-15T20:40:58.675769,248644,-1253,-425,-138,-1344,-136,-308,375,295,-47
630,1,2022-09-15T20:40:58.685303,248654,-1256,-414,-140,-1297,-24,-515,375,295,-47
631,1,2022-09-15T20:40:58.699614,248668,-1275,-394,-147,-1246,95,-571,365,301,-41
632,1,2022-09-15T20:40:58.710545,248678,-1275,-394,-147,-1246,95,-571,365,301,-41
633,1,2022-09-15T20:40:58.719114,248686,-1275,-394,-147,-1246,95,-571,365,301,-41
634,1,2022-09-15T20:40:58.725081,248693,-1286,-398,-149,-1190,140,-461,365,301,-41
635,1,2022-09-15T20:40:58.734781,248704,-1286,-398,-149,-1190,140,-461,365,301,-41
636,1,2022-09-15T20:40:58.743014,248712,-1291,-406,-143,-1152,163,-380,365,301,-41
637,1,2022-09-15T20:40:58.752034,248721,-1291,-406,-143,-1152,163,-380,365,301,-41
638,1,2022-09-15T20:40:58.758546,248728,-1289,-420,-140,-1120,96,-430,365,301,-41
639,1,2022-09-15T20:40:58.765013,248734,-1289,-420,-140,-1120,96,-430,365,301,-41
640,1,2022-09-15T20:40:58.770952,248739,-1289,-420,-140,-1120,96,-430,365,301,-41
641,1,2022-09-15T20:40:58.777353,248747,-1289,-420,-140,-1120,96,-430,365,301,-41
642,1,2022-09-15T20:40:58.783630,248753,-1276,-466,-128,-993,15,-660,365,301,-41
643,1,2022-09-15T20:40:58.789905,248759,-1276,-466,-128,-993,15,-660,365,301,-41
644,1,2022-09-15T20:40:58.798866,248768,-1274,-489,-123,-705,-71,-1009,365,301,-41
645,1,2022-09-15T20:40:58.805605,248774,-1274,-489,-123,-705,-71,-1009,365,301,-41
646,1,2022-09-15T20:40:58.811037,248780,-1274,-489,-123,-705,-71,-1009,365,301,-41
647,1,2022-09-15T20:40:58.817848,248786,-1274,-489,-123,-705,-71,-1009,365,301,-41
648,1,2022-09-15T20:40:58.823838,248793,-1268,-471,-126,-353,-192,-1269,365,301,-41
649,1,2022-09-15T20:40:58.830178,248800,-1268,-471,-126,-353,-192,-1269,365,301,-41
650,1,2022-09-15T20:40:58.836274,248806,-1268,-471,-126,-353,-192,-1269,365,301,-41
651,1,2022-09-15T20:40:58.843529,248812,-1267,-451,-125,-154,-206,-1379,373,295,-45
652,1,2022-09-15T20:40:58.852245,248820,-1267,-451,-125,-154,-206,-1379,373,295,-45
653,1,2022-09-15T20:40:58.858179,248827,-1267,-451,-125,-154,-206,-1379,373,295,-45
654,1,2022-09-15T20:40:58.863541,248833,-1272,-439,-128,-153,-215,-1309,373,295,-45
655,1,2022-09-15T20:40:58.870862,248840,-1272,-439,-128,-153,-215,-1309,373,295,-45
656,1,2022-09-15T20:40:58.877248,248847,-1272,-439,-128,-153,-215,-1309,373,295,-45
657,1,2022-09-15T20:40:58.884672,248854,-1282,-422,-127,-308,-215,-1121,373,295,-45
658,1,2022-09-15T20:40:58.890383,248859,-1282,-422,-127,-308,-215,-1121,373,295,-45
659,1,2022-09-15T20:40:58.898504,248867,-1282,-422,-127,-308,-215,-1121,373,295,-45
660,1,2022-09-15T20:40:58.904557,248873,-1254,-418,-141,-499,-190,-753,373,295,-45
661,1,2022-09-15T20:40:58.911038,248880,-1254,-418,-141,-499,-190,-753,373,295,-45
662,1,2022-09-15T20:40:58.917842,248887,-1254,-418,-141,-499,-190,-753,373,295,-45
663,1,2022-09-15T20:40:58.926862,248896,-1246,-435,-136,-687,16,-488,373,295,-45
664,1,2022-09-15T20:40:58.933014,248902,-1246,-435,-136,-687,16,-488,373,295,-45
665,1,2022-09-15T20:40:58.939365,248908,-1246,-440,-124,-849,204,-468,373,295,-45
666,1,2022-09-15T20:40:58.947439,248916,-1246,-440,-124,-849,204,-468,373,295,-45
667,1,2022-09-15T20:40:58.952442,248922,-1246,-440,-124,-849,204,-468,373,295,-45
668,1,2022-09-15T20:40:58.959210,248928,-1248,-448,-116,-906,226,-544,373,297,-37
669,1,2022-09-15T20:40:58.965744,248935,-1248,-448,-116,-906,226,-544,373,297,-37
670,1,2022-09-15T20:40:58.972057,248941,-1248,-448,-116,-906,226,-544,373,297,-37
671,1,2022-09-15T20:40:58.979106,248947,-1246,-465,-116,-946,162,-688,373,297,-37
672,1,2022-09-15T20:40:58.984940,248953,-1246,-465,-116,-946,162,-688,373,297,-37
673,1,2022-09-15T20:40:58.990680,248960,-1246,-465,-116,-946,162,-688,373,297,-37
674,1,2022-09-15T20:40:59.000003,248969,-1226,-480,-127,-937,62,-791,373,297,-37
675,1,2022-09-15T20:40:59.005334,248974,-1226,-480,-127,-937,62,-791,373,297,-37
676,1,2022-09-15T20:40:59.011604,248980,-1226,-480,-127,-937,62,-791,373,297,-37
677,1,2022-09-15T20:40:59.019207,248987,-1226,-480,-127,-937,62,-791,373,297,-37
678,1,2022-09-15T20:40:59.025701,248994,-1218,-492,-130,-906,53,-952,373,297,-37
679,1,2022-09-15T20:40:59.031962,249001,-1218,-492,-130,-906,53,-952,373,297,-37
680,1,2022-09-15T20:40:59.038060,249008,-1218,-492,-130,-906,53,-952,373,297,-37
681,1,2022-09-15T20:40:59.044088,249013,-1228,-496,-122,-865,99,-1087,373,297,-37
682,1,2022-09-15T20:40:59.051431,249020,-1228,-496,-122,-865,99,-1087,373,297,-37
683,1,2022-09-15T20:40:59.058558,249027,-1228,-496,-122,-865,99,-1087,373,297,-37
684,1,2022-09-15T20:40:59.064646,249033,-1238,-497,-127,-763,118,-1020,373,297,-37
685,1,2022-09-15T20:40:59.071594,249040,-1238,-497,-127,-763,118,-1020,373,297,-37
686,1,2022-09-15T20:40:59.078204,249048,-1238,-497,-127,-763,118,-1020,373,297,-37
687,1,2022-09-15T20:40:59.083788,249053,-1252,-500,-108,-661,140,-789,384,296,-42
688,1,2022-09-15T20:40:59.089465,249058,-1252,-500,-108,-661,140,-789,384,296,-42
689,1,2022-09-15T20:40:59.098196,249067,-1252,-500,-108,-661,140,-789,384,296,-42
690,1,2022-09-15T20:40:59.103449,249072,-1246,-504,-118,-574,133,-527,384,296,-42
691,1,2022-09-15T20:40:59.110929,249079,-1246,-504,-118,-574,133,-527,384,296,-42
692,1,2022-09-15T20:40:59.117886,249086,-1246,-504,-118,-574,133,-527,384,296,-42
693,1,2022-09-15T20:40:59.125600,249095,-1250,-500,-116,-536,152,-403,384,296,-42
694,1,2022-09-15T20:40:59.132102,249101,-1250,-500,-116,-536,152,-403,384,296,-42
695,1,2022-09-15T20:40:59.139327,249108,-1257,-480,-126,-523,152,-335,384,296,-42
696,1,2022-09-15T20:40:59.149966,249119,-1257,-480,-126,-523,152,-335,384,296,-42
697,1,2022-09-15T20:40:59.156737,249125,-1257,-480,-126,-523,152,-335,384,296,-42
698,1,2022-09-15T20:40:59.162651,249132,-1259,-459,-129,-568,98,-240,384,296,-42
699,1,2022-09-15T20:40:59.170079,249139,-1259,-459,-129,-568,98,-240,384,296,-42
700,1,2022-09-15T20:40:59.176841,249146,-1259,-459,-129,-568,98,-240,384,296,-42
701,1,2022-09-15T20:40:59.183404,249153,-1257,-454,-132,-664,82,-97,384,296,-42
702,1,2022-09-15T20:40:59.190027,249159,-1257,-454,-132,-664,82,-97,384,296,-42
703,1,2022-09-15T20:40:59.199358,249168,-1242,-460,-135,-789,105,31,370,280,-32
704,1,2022-09-15T20:40:59.206811,249176,-1242,-460,-135,-789,105,31,370,280,-32
705,1,2022-09-15T20:40:59.212072,249182,-1242,-460,-135,-789,105,31,370,280,-32
706,1,2022-09-15T20:40:59.217740,249187,-1242,-460,-135,-789,105,31,370,280,-32
707,1,2022-09-15T20:40:59.226604,249196,-1245,-463,-131,-951,134,55,370,280,-32
708,1,2022-09-15T20:40:59.233515,249202,-1245,-463,-131,-951,134,55,370,280,-32
709,1,2022-09-15T20:40:59.240136,249209,-1239,-467,-132,-1067,124,8,370,280,-32
710,1,2022-09-15T20:40:59.249259,249219,-1239,-467,-132,-1067,124,8,370,280,-32
711,1,2022-09-15T20:40:59.256490,249226,-1239,-467,-132,-1067,124,8,370,280,-32
712,1,2022-09-15T20:40:59.262908,249231,-1238,-471,-135,-1127,97,-63,370,280,-32
713,1,2022-09-15T20:40:59.269845,249238,-1238,-471,-135,-1127,97,-63,370,280,-32
714,1,2022-09-15T20:40:59.277007,249246,-1238,-471,-135,-1127,97,-63,370,280,-32
715,1,2022-09-15T20:40:59.283619,249252,-1251,-467,-130,-1135,83,-114,370,280,-32
716,1,2022-09-15T20:40:59.288824,249257,-1251,-467,-130,-1135,83,-114,370,280,-32
717,1,2022-09-15T20:40:59.296129,249265,-1251,-467,-130,-1135,83,-114,370,280,-32
718,1,2022-09-15T20:40:59.303234,249272,-1250,-470,-135,-1119,17,-81,370,280,-32
719,1,2022-09-15T20:40:59.309225,249279,-1250,-470,-135,-1119,17,-81,370,280,-32
720,1,2022-09-15T20:40:59.314398,249284,-1250,-470,-135,-1119,17,-81,370,280,-32
721,1,2022-09-15T20:40:59.321486,249290,-1256,-476,-131,-1113,-51,-60,370,280,-32
722,1,2022-09-15T20:40:59.328054,249297,-1256,-476,-131,-1113,-51,-60,370,280,-32
723,1,2022-09-15T20:40:59.333461,249303,-1256,-476,-131,-1113,-51,-60,370,280,-32
724,1,2022-09-15T20:40:59.340079,249309,-1254,-478,-130,-1124,-130,-101,382,294,-36
725,1,2022-09-15T20:40:59.348858,249318,-1254,-478,-130,-1124,-130,-101,382,294,-36
726,1,2022-09-15T20:40:59.354009,249323,-1254,-478,-130,-1124,-130,-101,382,294,-36
727,1,2022-09-15T20:40:59.361100,249329,-1251,-482,-132,-1154,-226,-181,382,294,-36
728,1,2022-09-15T20:40:59.367100,249335,-1251,-482,-132,-1154,-226,-181,382,294,-36
729,1,2022-09-15T20:40:59.374093,249342,-1251,-482,-132,-1154,-226,-181,382,294,-36
730,1,2022-09-15T20:40:59.381513,249350,-1255,-478,-126,-1192,-274,-229,382,294,-36
731,1,2022-09-15T20:40:59.388418,249358,-1255,-478,-126,-1192,-274,-229,382,294,-36
732,1,2022-09-15T20:40:59.394123,249363,-1255,-478,-126,-1192,-274,-229,382,294,-36
733,1,2022-09-15T20:40:59.402047,249370,-1260,-471,-129,-1172,-267,-171,382,294,-36
734,1,2022-09-15T20:40:59.408518,249378,-1260,-471,-129,-1172,-267,-171,382,294,-36
735,1,2022-09-15T20:40:59.413623,249382,-1260,-471,-129,-1172,-267,-171,382,294,-36
736,1,2022-09-15T20:40:59.419271,249388,-1255,-464,-128,-1124,-298,-23,382,294,-36
737,1,2022-09-15T20:40:59.428554,249397,-1255,-464,-128,-1124,-298,-23,382,294,-36
738,1,2022-09-15T20:40:59.434761,249404,-1255,-464,-128,-1124,-298,-23,382,294,-36
739,1,2022-09-15T20:40:59.441402,249410,-1241,-461,-134,-1102,-317,105,382,294,-36
740,1,2022-09-15T20:40:59.450814,249420,-1241,-461,-134,-1102,-317,105,382,294,-36
741,1,2022-09-15T20:40:59.457595,249426,-1241,-461,-134,-1102,-317,105,382,294,-36
742,1,2022-09-15T20:40:59.464291,249433,-1238,-460,-132,-1143,-305,149,382,292,-34
743,1,2022-09-15T20:40:59.472089,249441,-1238,-460,-132,-1143,-305,149,382,292,-34
744,1,2022-09-15T20:40:59.479386,249448,-1248,-457,-125,-1202,-272,122,382,292,-34
745,1,2022-09-15T20:40:59.486355,249455,-1248,-457,-125,-1202,-272,122,382,292,-34
746,1,2022-09-15T20:40:59.492355,249461,-1248,-457,-125,-1202,-272,122,382,292,-34
747,1,2022-09-15T20:40:59.500765,249469,-1246,-453,-127,-1260,-324,72,382,292,-34
748,1,2022-09-15T20:40:59.506317,249476,-1246,-453,-127,-1260,-324,72,382,292,-34
749,1,2022-09-15T20:40:59.511438,249481,-1246,-453,-127,-1260,-324,72,382,292,-34
750,1,2022-09-15T20:40:59.518673,249488,-1246,-453,-127,-1260,-324,72,382,292,-34
751,1,2022-09-15T20:40:59.524795,249494,-1249,-459,-123,-1325,-401,-3,382,292,-34
752,1,2022-09-15T20:40:59.532344,249501,-1249,-459,-123,-1325,-401,-3,382,292,-34
753,1,2022-09-15T20:40:59.537697,249506,-1249,-459,-123,-1325,-401,-3,382,292,-34
754,1,2022-09-15T20:40:59.545442,249512,-1260,-455,-113,-1414,-429,-72,382,292,-34
755,1,2022-09-15T20:40:59.552020,249522,-1260,-455,-113,-1414,-429,-72,382,292,-34
756,1,2022-09-15T20:40:59.558559,249528,-1246,-454,-123,-1443,-492,44,382,292,-34
757,1,2022-09-15T20:40:59.565857,249535,-1246,-454,-123,-1443,-492,44,382,292,-34
758,1,2022-09-15T20:40:59.572631,249541,-1246,-454,-123,-1443,-492,44,382,292,-34
759,1,2022-09-15T20:40:59.579352,249548,-1233,-465,-117,-1488,-430,85,372,298,-44
760,1,2022-09-15T20:40:59.586050,249554,-1233,-465,-117,-1488,-430,85,372,298,-44
761,1,2022-09-15T20:40:59.591490,249561,-1233,-465,-117,-1488,-430,85,372,298,-44
762,1,2022-09-15T20:40:59.598721,249568,-1233,-465,-117,-1488,-430,85,372,298,-44
763,1,2022-09-15T20:40:59.605162,249574,-1243,-475,-113,-1526,-293,-67,372,298,-44
764,1,2022-09-15T20:40:59.612302,249581,-1243,-475,-113,-1526,-293,-67,372,298,-44
765,1,2022-09-15T20:40:59.619451,249588,-1250,-470,-113,-1491,-260,-176,372,298,-44
766,1,2022-09-15T20:40:59.626454,249595,-1250,-470,-113,-1491,-260,-176,372,298,-44
767,1,2022-09-15T20:40:59.631585,249601,-1250,-470,-113,-1491,-260,-176,372,298,-44
768,1,2022-09-15T20:40:59.638098,249607,-1250,-470,-113,-1491,-260,-176,372,298,-44
769,1,2022-09-15T20:40:59.645873,249613,-1245,-471,-118,-1434,-278,-187,372,298,-44
770,1,2022-09-15T20:40:59.653281,249622,-1245,-471,-118,-1434,-278,-187,372,298,-44
771,1,2022-09-15T20:40:59.660126,249629,-1241,-472,-118,-1362,-272,-121,372,298,-44
772,1,2022-09-15T20:40:59.667057,249635,-1241,-472,-118,-1362,-272,-121,372,298,-44
773,1,2022-09-15T20:40:59.673447,249643,-1241,-472,-118,-1362,-272,-121,372,298,-44
774,1,2022-09-15T20:40:59.679969,249649,-1247,-473,-114,-1317,-230,-122,372,298,-44
775,1,2022-09-15T20:40:59.687477,249657,-1247,-473,-114,-1317,-230,-122,372,298,-44
776,1,2022-09-15T20:40:59.693454,249662,-1247,-473,-114,-1317,-230,-122,372,298,-44
777,1,2022-09-15T20:40:59.701297,249670,-1246,-472,-114,-1275,-264,-100,374,296,-40
778,1,2022-09-15T20:40:59.708114,249676,-1246,-472,-114,-1275,-264,-100,374,296,-40
779,1,2022-09-15T20:40:59.713841,249683,-1246,-472,-114,-1275,-264,-100,374,296,-40
780,1,2022-09-15T20:40:59.721004,249690,-1247,-457,-111,-1245,-331,-74,374,296,-40
781,1,2022-09-15T20:40:59.728952,249698,-1247,-457,-111,-1245,-331,-74,374,296,-40
782,1,2022-09-15T20:40:59.734438,249703,-1247,-457,-111,-1245,-331,-74,374,296,-40
783,1,2022-09-15T20:40:59.740976,249710,-1247,-457,-116,-1252,-339,-57,374,296,-40
784,1,2022-09-15T20:40:59.750293,249719,-1247,-457,-116,-1252,-339,-57,374,296,-40
785,1,2022-09-15T20:40:59.758174,249728,-1247,-457,-116,-1252,-339,-57,374,296,-40
786,1,2022-09-15T20:40:59.763638,249733,-1245,-461,-113,-1307,-333,-21,374,296,-40
787,1,2022-09-15T20:40:59.770770,249740,-1245,-461,-113,-1307,-333,-21,374,296,-40
788,1,2022-09-15T20:40:59.777683,249747,-1245,-461,-113,-1307,-333,-21,374,296,-40
789,1,2022-09-15T20:40:59.783474,249752,-1241,-463,-110,-1372,-328,-25,374,296,-40
790,1,2022-09-15T20:40:59.789908,249759,-1241,-463,-110,-1372,-328,-25,374,296,-40
791,1,2022-09-15T20:40:59.797810,249766,-1241,-463,-110,-1372,-328,-25,374,296,-40
792,1,2022-09-15T20:40:59.803404,249773,-1254,-465,-114,-1428,-318,-48,374,296,-40
793,1,2022-09-15T20:40:59.810213,249780,-1254,-465,-114,-1428,-318,-48,374,296,-40
794,1,2022-09-15T20:40:59.816870,249786,-1254,-465,-114,-1428,-318,-48,374,296,-40
795,1,2022-09-15T20:40:59.822896,249792,-1254,-464,-107,-1430,-321,27,374,296,-40
796,1,2022-09-15T20:40:59.829665,249799,-1254,-464,-107,-1430,-321,27,374,296,-40
797,1,2022-09-15T20:40:59.836092,249805,-1254,-464,-107,-1430,-321,27,374,296,-40
798,1,2022-09-15T20:40:59.841874,249810,-1239,-463,-113,-1427,-341,115,366,296,-36
799,1,2022-09-15T20:40:59.850777,249820,-1239,-463,-113,-1427,-341,115,366,296,-36
800,1,2022-09-15T20:40:59.857083,249826,-1239,-463,-113,-1427,-341,115,366,296,-36
801,1,2022-09-15T20:40:59.862969,249832,-1239,-460,-115,-1438,-300,86,366,296,-36
802,1,2022-09-15T20:40:59.870162,249839,-1239,-460,-115,-1438,-300,86,366,296,-36
803,1,2022-09-15T20:40:59.875519,249845,-1239,-460,-115,-1438,-300,86,366,296,-36
804,1,2022-09-15T20:40:59.882973,249852,-1256,-456,-107,-1454,-253,30,366,296,-36
805,1,2022-09-15T20:40:59.888357,249858,-1256,-456,-107,-1454,-253,30,366,296,-36
806,1,2022-09-15T20:40:59.894444,249863,-1256,-456,-107,-1454,-253,30,366,296,-36
807,1,2022-09-15T20:40:59.902752,249872,-1250,-455,-110,-1450,-305,67,366,296,-36
808,1,2022-09-15T20:40:59.908893,249878,-1250,-455,-110,-1450,-305,67,366,296,-36
809,1,2022-09-15T20:40:59.914370,249883,-1250,-455,-110,-1450,-305,67,366,296,-36
810,1,2022-09-15T20:40:59.921455,249890,-1248,-460,-113,-1463,-357,88,366,296,-36
811,1,2022-09-15T20:40:59.928283,249897,-1248,-460,-113,-1463,-357,88,366,296,-36
812,1,2022-09-15T20:40:59.933524,249903,-1248,-460,-113,-1463,-357,88,366,296,-36
813,1,2022-09-15T20:40:59.941483,249911,-1235,-467,-115,-1467,-382,30,366,296,-36
814,1,2022-09-15T20:40:59.949726,249918,-1235,-467,-115,-1467,-382,30,366,296,-36
815,1,2022-09-15T20:40:59.955620,249925,-1235,-467,-115,-1467,-382,30,366,296,-36
816,1,2022-09-15T20:40:59.962344,249931,-1242,-471,-106,-1465,-376,-84,375,297,-41
817,1,2022-09-15T20:40:59.969369,249937,-1242,-471,-106,-1465,-376,-84,375,297,-41
818,1,2022-09-15T20:40:59.975556,249945,-1242,-471,-106,-1465,-376,-84,375,297,-41
819,1,2022-09-15T20:40:59.982415,249951,-1246,-465,-115,-1440,-346,-104,375,297,-41
820,1,2022-09-15T20:40:59.990108,249959,-1246,-465,-115,-1440,-346,-104,375,297,-41
821,1,2022-09-15T20:40:59.997475,249966,-1246,-465,-115,-1440,-346,-104,375,297,-41
822,1,2022-09-15T20:41:00.003783,249973,-1251,-459,-116,-1429,-308,-22,375,297,-41
823,1,2022-09-15T20:41:00.010156,249979,-1251,-459,-116,-1429,-308,-22,375,297,-41
824,1,2022-09-15T20:41:00.023907,249986,-1251,-459,-116,-1429,-308,-22,375,297,-41
825,1,2022-09-15T20:41:00.030935,249999,-1254,-455,-115,-1459,-314,62,375,297,-41
826,1,2022-09-15T20:41:00.039567,250009,-1241,-454,-122,-1523,-303,93,375,297,-41
827,1,2022-09-15T20:41:00.049199,250018,-1241,-454,-122,-1523,-303,93,375,297,-41
828,1,2022-09-15T20:41:00.055496,250024,-1241,-454,-122,-1523,-303,93,375,297,-41
829,1,2022-09-15T20:41:00.065817,250035,-1261,-452,-116,-1585,-256,82,375,297,-41
830,1,2022-09-15T20:41:00.075641,250045,-1261,-452,-116,-1585,-256,82,375,297,-41
831,1,2022-09-15T20:41:00.082018,250051,-1266,-452,-104,-1596,-297,169,376,298,-48
832,1,2022-09-15T20:41:00.088591,250057,-1266,-452,-104,-1596,-297,169,376,298,-48
833,1,2022-09-15T20:41:00.094639,250063,-1266,-452,-104,-1596,-297,169,376,298,-48
834,1,2022-09-15T20:41:00.101442,250071,-1244,-465,-116,-1581,-410,248,376,298,-48
835,1,2022-09-15T20:41:00.108040,250078,-1244,-465,-116,-1581,-410,248,376,298,-48
836,1,2022-09-15T20:41:00.113248,250083,-1244,-465,-116,-1581,-410,248,376,298,-48
837,1,2022-09-15T20:41:00.120725,250089,-1242,-470,-110,-1615,-428,146,376,298,-48
838,1,2022-09-15T20:41:00.127663,250097,-1242,-470,-110,-1615,-428,146,376,298,-48
839,1,2022-09-15T20:41:00.133591,250102,-1242,-470,-110,-1615,-428,146,376,298,-48
840,1,2022-09-15T20:41:00.140120,250109,-1234,-464,-125,-1605,-402,15,376,298,-48
841,1,2022-09-15T20:41:00.147906,250117,-1234,-464,-125,-1605,-402,15,376,298,-48
842,1,2022-09-15T20:41:00.152894,250122,-1234,-464,-125,-1605,-402,15,376,298,-48
843,1,2022-09-15T20:41:00.159256,250129,-1250,-445,-128,-1628,-301,-21,376,298,-48
844,1,2022-09-15T20:41:00.167311,250136,-1250,-445,-128,-1628,-301,-21,376,298,-48
845,1,2022-09-15T20:41:00.174796,250143,-1250,-445,-128,-1628,-301,-21,376,298,-48
846,1,2022-09-15T20:41:00.181477,250150,-1271,-438,-121,-1648,-254,106,376,298,-48
847,1,2022-09-15T20:41:00.188672,250158,-1271,-438,-121,-1648,-254,106,376,298,-48
848,1,2022-09-15T20:41:00.195342,250164,-1271,-438,-121,-1648,-254,106,376,298,-48
849,1,2022-09-15T20:41:00.203358,250172,-1256,-458,-125,-1658,-310,216,375,285,-35
850,1,2022-09-15T20:41:00.210330,250179,-1256,-458,-125,-1658,-310,216,375,285,-35
851,1,2022-09-15T20:41:00.216388,250185,-1256,-458,-125,-1658,-310,216,375,285,-35
852,1,2022-09-15T20:41:00.225593,250194,-1276,-462,-125,-1667,-330,191,375,285,-35
853,1,2022-09-15T20:41:00.232964,250202,-1276,-462,-125,-1667,-330,191,375,285,-35
854,1,2022-09-15T20:41:00.239945,250209,-1262,-474,-124,-1615,-445,267,375,285,-35
855,1,2022-09-15T20:41:00.249894,250219,-1262,-474,-124,-1615,-445,267,375,285,-35
856,1,2022-09-15T20:41:00.256906,250225,-1262,-474,-124,-1615,-445,267,375,285,-35
857,1,2022-09-15T20:41:00.262630,250231,-1248,-478,-123,-1588,-505,278,375,285,-35
858,1,2022-09-15T20:41:00.271945,250241,-1248,-478,-123,-1588,-505,278,375,285,-35
859,1,2022-09-15T20:41:00.279042,250249,-1262,-480,-111,-1613,-554,120,375,285,-35
860,1,2022-09-15T20:41:00.285454,250255,-1262,-480,-111,-1613,-554,120,375,285,-35
861,1,2022-09-15T20:41:00.290631,250260,-1262,-480,-111,-1613,-554,120,375,285,-35
862,1,2022-09-15T20:41:00.297050,250266,-1262,-480,-111,-1613,-554,120,375,285,-35
863,1,2022-09-15T20:41:00.302672,250271,-1249,-476,-111,-1652,-703,52,375,285,-35
864,1,2022-09-15T20:41:00.308024,250277,-1249,-476,-111,-1652,-703,52,375,285,-35
865,1,2022-09-15T20:41:00.313380,250283,-1249,-476,-111,-1652,-703,52,375,285,-35
866,1,2022-09-15T20:41:00.319736,250289,-1251,-468,-106,-1740,-800,88,370,292,-34
867,1,2022-09-15T20:41:00.328106,250297,-1251,-468,-106,-1740,-800,88,370,292,-34
868,1,2022-09-15T20:41:00.334389,250304,-1251,-468,-106,-1740,-800,88,370,292,-34
869,1,2022-09-15T20:41:00.341733,250310,-1240,-456,-108,-1826,-802,261,370,292,-34
870,1,2022-09-15T20:41:00.348121,250317,-1240,-456,-108,-1826,-802,261,370,292,-34
871,1,2022-09-15T20:41:00.353302,250322,-1240,-456,-108,-1826,-802,261,370,292,-34
872,1,2022-09-15T20:41:00.359370,250329,-1250,-446,-96,-1889,-685,488,370,292,-34
873,1,2022-09-15T20:41:00.366942,250336,-1250,-446,-96,-1889,-685,488,370,292,-34
874,1,2022-09-15T20:41:00.372079,250342,-1250,-446,-96,-1889,-685,488,370,292,-34
875,1,2022-09-15T20:41:00.378272,250348,-1250,-446,-96,-1889,-685,488,370,292,-34
876,1,2022-09-15T20:41:00.383795,250353,-1260,-444,-83,-1918,-616,699,370,292,-34
877,1,2022-09-15T20:41:00.390584,250359,-1260,-444,-83,-1918,-616,699,370,292,-34
878,1,2022-09-15T20:41:00.395697,250365,-1260,-444,-83,-1918,-616,699,370,292,-34
879,1,2022-09-15T20:41:00.402323,250372,-1242,-445,-80,-1918,-656,827,370,292,-34
880,1,2022-09-15T20:41:00.409924,250379,-1242,-445,-80,-1918,-656,827,370,292,-34
881,1,2022-09-15T20:41:00.415289,250385,-1242,-445,-80,-1918,-656,827,370,292,-34
882,1,2022-09-15T20:41:00.422745,250392,-1231,-458,-78,-1948,-608,730,370,292,-34
883,1,2022-09-15T20:41:00.433337,250402,-1231,-458,-78,-1948,-608,730,370,292,-34
884,1,2022-09-15T20:41:00.441316,250409,-1234,-453,-80,-1962,-476,449,370,292,-34
885,1,2022-09-15T20:41:00.448406,250418,-1234,-453,-80,-1962,-476,449,370,292,-34
886,1,2022-09-15T20:41:00.454280,250423,-1234,-453,-80,-1962,-476,449,370,292,-34
887,1,2022-09-15T20:41:00.463120,250432,-1257,-442,-67,-1939,-348,264,373,293,-37
888,1,2022-09-15T20:41:00.471249,250439,-1257,-442,-67,-1939,-348,264,373,293,-37
889,1,2022-09-15T20:41:00.476805,250446,-1257,-442,-67,-1939,-348,264,373,293,-37
890,1,2022-09-15T20:41:00.485729,250455,-1247,-440,-77,-1875,-312,348,373,293,-37
891,1,2022-09-15T20:41:00.492395,250462,-1247,-440,-77,-1875,-312,348,373,293,-37
892,1,2022-09-15T20:41:00.498467,250468,-1247,-440,-77,-1875,-312,348,373,293,-37
893,1,2022-09-15T20:41:00.504174,250473,-1234,-448,-91,-1833,-134,418,373,293,-37
894,1,2022-09-15T20:41:00.511129,250480,-1234,-448,-91,-1833,-134,418,373,293,-37
895,1,2022-09-15T20:41:00.517889,250486,-1234,-448,-91,-1833,-134,418,373,293,-37
896,1,2022-09-15T20:41:00.524254,250492,-1262,-451,-94,-1774,126,411,373,293,-37
897,1,2022-09-15T20:41:00.531613,250501,-1262,-451,-94,-1774,126,411,373,293,-37
898,1,2022-09-15T20:41:00.538544,250508,-1262,-451,-94,-1774,126,411,373,293,-37
899,1,2022-09-15T20:41:00.544442,250513,-1276,-446,-111,-1726,262,381,373,293,-37
900,1,2022-09-15T20:41:00.550847,250520,-1276,-446,-111,-1726,262,381,373,293,-37
901,1,2022-09-15T20:41:00.557172,250526,-1276,-446,-111,-1726,262,381,373,293,-37
902,1,2022-09-15T20:41:00.562715,250531,-1290,-439,-120,-1703,290,460,373,293,-37
903,1,2022-09-15T20:41:00.569137,250539,-1290,-439,-120,-1703,290,460,373,293,-37
904,1,2022-09-15T20:41:00.574734,250544,-1290,-439,-120,-1703,290,460,373,293,-37
905,1,2022-09-15T20:41:00.583803,250553,-1293,-424,-135,-1704,327,557,370,296,-44
906,1,2022-09-15T20:41:00.591701,250560,-1293,-424,-135,-1704,327,557,370,296,-44
907,1,2022-09-15T20:41:00.598529,250568,-1293,-424,-135,-1704,327,557,370,296,-44
908,1,2022-09-15T20:41:00.604772,250574,-1281,-413,-150,-1695,346,752,370,296,-44
909,1,2022-09-15T20:41:00.610993,250580,-1281,-413,-150,-1695,346,752,370,296,-44
910,1,2022-09-15T20:41:00.616222,250586,-1281,-413,-150,-1695,346,752,370,296,-44
911,1,2022-09-15T20:41:00.623246,250593,-1305,-405,-160,-1730,410,794,370,296,-44
912,1,2022-09-15T20:41:00.630578,250599,-1305,-405,-160,-1730,410,794,370,296,-44
913,1,2022-09-15T20:41:00.636174,250605,-1305,-405,-160,-1730,410,794,370,296,-44
914,1,2022-09-15T20:41:00.642031,250611,-1294,-393,-189,-1793,345,880,370,296,-44
915,1,2022-09-15T20:41:00.648369,250617,-1294,-393,-189,-1793,345,880,370,296,-44
916,1,2022-09-15T20:41:00.654273,250622,-1294,-393,-189,-1793,345,880,370,296,-44
917,1,2022-09-15T20:41:00.660746,250630,-1308,-368,-202,-1985,340,855,370,296,-44
918,1,2022-09-15T20:41:00.667900,250637,-1308,-368,-202,-1985,340,855,370,296,-44
919,1,2022-09-15T20:41:00.673377,250643,-1308,-368,-202,-1985,340,855,370,296,-44
920,1,2022-09-15T20:41:00.679831,250649,-1336,-336,-225,-2272,373,858,370,296,-44
921,1,2022-09-15T20:41:00.688036,250657,-1336,-336,-225,-2272,373,858,370,296,-44
922,1,2022-09-15T20:41:00.693487,250662,-1336,-336,-225,-2272,373,858,370,296,-44
923,1,2022-09-15T20:41:00.698679,250668,-1336,-336,-225,-2272,373,858,370,296,-44
924,1,2022-09-15T20:41:00.705101,250673,-1359,-330,-232,-2592,305,1026,369,293,-43
925,1,2022-09-15T20:41:00.710888,250680,-1359,-330,-232,-2592,305,1026,369,293,-43
926,1,2022-09-15T20:41:00.716861,250686,-1359,-330,-232,-2592,305,1026,369,293,-43
927,1,2022-09-15T20:41:00.723731,250692,-1367,-332,-227,-2926,90,1166,369,293,-43
928,1,2022-09-15T20:41:00.729315,250698,-1367,-332,-227,-2926,90,1166,369,293,-43
929,1,2022-09-15T20:41:00.734887,250703,-1367,-332,-227,-2926,90,1166,369,293,-43
930,1,2022-09-15T20:41:00.741479,250711,-1363,-328,-231,-3256,-245,1187,369,293,-43
931,1,2022-09-15T20:41:00.746843,250716,-1363,-328,-231,-3256,-245,1187,369,293,-43
932,1,2022-09-15T20:41:00.752329,250722,-1363,-328,-231,-3256,-245,1187,369,293,-43
933,1,2022-09-15T20:41:00.759524,250728,-1373,-315,-238,-3621,-603,1157,369,293,-43
934,1,2022-09-15T20:41:00.768639,250737,-1373,-315,-238,-3621,-603,1157,369,293,-43
935,1,2022-09-15T20:41:00.775091,250744,-1373,-315,-238,-3621,-603,1157,369,293,-43
936,1,2022-09-15T20:41:00.782291,250750,-1370,-313,-248,-4012,-973,1174,369,293,-43
937,1,2022-09-15T20:41:00.787878,250757,-1370,-313,-248,-4012,-973,1174,369,293,-43
938,1,2022-09-15T20:41:00.793379,250763,-1370,-313,-248,-4012,-973,1174,369,293,-43
939,1,2022-09-15T20:41:00.799384,250769,-1371,-322,-251,-4482,-1298,1068,369,293,-43
940,1,2022-09-15T20:41:00.805910,250775,-1371,-322,-251,-4482,-1298,1068,369,293,-43
941,1,2022-09-15T20:41:00.811475,250780,-1371,-322,-251,-4482,-1298,1068,369,293,-43
942,1,2022-09-15T20:41:00.817877,250787,-1371,-322,-251,-4482,-1298,1068,369,293,-43
943,1,2022-09-15T20:41:00.823290,250792,-1349,-336,-252,-4963,-1654,1072,373,299,-41
944,1,2022-09-15T20:41:00.829652,250799,-1349,-336,-252,-4963,-1654,1072,373,299,-41
945,1,2022-09-15T20:41:00.834633,250804,-1349,-336,-252,-4963,-1654,1072,373,299,-41
946,1,2022-09-15T20:41:00.841027,250810,-1320,-368,-260,-5437,-1903,1006,373,299,-41
947,1,2022-09-15T20:41:00.847663,250817,-1320,-368,-260,-5437,-1903,1006,373,299,-41
948,1,2022-09-15T20:41:00.852991,250822,-1320,-368,-260,-5437,-1903,1006,373,299,-41
949,1,2022-09-15T20:41:00.859243,250829,-1293,-400,-252,-5738,-1968,875,373,299,-41
950,1,2022-09-15T20:41:00.864665,250833,-1293,-400,-252,-5738,-1968,875,373,299,-41
951,1,2022-09-15T20:41:00.870085,250840,-1293,-400,-252,-5738,-1968,875,373,299,-41
952,1,2022-09-15T20:41:00.875151,250845,-1293,-400,-252,-5738,-1968,875,373,299,-41
953,1,2022-09-15T20:41:00.881717,250851,-1311,-428,-223,-5825,-1893,675,373,299,-41
954,1,2022-09-15T20:41:00.888243,250858,-1311,-428,-223,-5825,-1893,675,373,299,-41
955,1,2022-09-15T20:41:00.893718,250863,-1311,-428,-223,-5825,-1893,675,373,299,-41
956,1,2022-09-15T20:41:00.900548,250870,-1301,-462,-190,-5678,-2023,658,373,299,-41
957,1,2022-09-15T20:41:00.905530,250874,-1301,-462,-190,-5678,-2023,658,373,299,-41
958,1,2022-09-15T20:41:00.911063,250881,-1301,-462,-190,-5678,-2023,658,373,299,-41
959,1,2022-09-15T20:41:00.917844,250887,-1301,-462,-190,-5678,-2023,658,373,299,-41
960,1,2022-09-15T20:41:00.924948,250894,-1307,-464,-155,-5444,-2221,496,373,299,-41
961,1,2022-09-15T20:41:00.931612,250901,-1307,-464,-155,-5444,-2221,496,373,299,-41
962,1,2022-09-15T20:41:00.938200,250907,-1307,-464,-155,-5444,-2221,496,373,299,-41
963,1,2022-09-15T20:41:00.944401,250913,-1314,-447,-141,-5106,-2532,442,373,299,-41
964,1,2022-09-15T20:41:00.951250,250920,-1314,-447,-141,-5106,-2532,442,373,299,-41
965,1,2022-09-15T20:41:00.956528,250926,-1314,-447,-141,-5106,-2532,442,373,299,-41
966,1,2022-09-15T20:41:00.963104,250932,-1305,-425,-132,-4684,-2739,655,368,304,-52
967,1,2022-09-15T20:41:00.970769,250940,-1305,-425,-132,-4684,-2739,655,368,304,-52
968,1,2022-09-15T20:41:00.976646,250945,-1305,-425,-132,-4684,-2739,655,368,304,-52
969,1,2022-09-15T20:41:00.983606,250952,-1258,-428,-150,-4160,-2714,1021,368,304,-52
970,1,2022-09-15T20:41:00.990620,250959,-1258,-428,-150,-4160,-2714,1021,368,304,-52
971,1,2022-09-15T20:41:00.995840,250966,-1258,-428,-150,-4160,-2714,1021,368,304,-52
972,1,2022-09-15T20:41:01.002644,250972,-1239,-441,-159,-3583,-2295,1104,368,304,-52
973,1,2022-09-15T20:41:01.009007,250977,-1239,-441,-159,-3583,-2295,1104,368,304,-52
974,1,2022-09-15T20:41:01.015779,250985,-1239,-441,-159,-3583,-2295,1104,368,304,-52
975,1,2022-09-15T20:41:01.023443,250992,-1253,-448,-161,-3026,-1681,946,368,304,-52
976,1,2022-09-15T20:41:01.031609,250999,-1253,-448,-161,-3026,-1681,946,368,304,-52
977,1,2022-09-15T20:41:01.038094,251006,-1253,-448,-161,-3026,-1681,946,368,304,-52
978,1,2022-09-15T20:41:01.045858,251014,-1298,-439,-151,-2476,-1212,835,368,304,-52
979,1,2022-09-15T20:41:01.053490,251023,-1298,-439,-151,-2476,-1212,835,368,304,-52
980,1,2022-09-15T20:41:01.060617,251029,-1322,-430,-146,-1982,-1034,800,368,304,-52
981,1,2022-09-15T20:41:01.073505,251042,-1322,-430,-146,-1982,-1034,800,368,304,-52
982,1,2022-09-15T20:41:01.083956,251053,-1301,-421,-145,-1560,-1000,724,367,305,-59
983,1,2022-09-15T20:41:01.092839,251061,-1301,-421,-145,-1560,-1000,724,367,305,-59
984,1,2022-09-15T20:41:01.100778,251070,-1299,-417,-143,-1201,-883,476,367,305,-59
985,1,2022-09-15T20:41:01.112177,251081,-1299,-417,-143,-1201,-883,476,367,305,-59
986,1,2022-09-15T20:41:01.120313,251088,-1289,-407,-144,-873,-757,170,367,305,-59
987,1,2022-09-15T20:41:01.127769,251097,-1289,-407,-144,-873,-757,170,367,305,-59
988,1,2022-09-15T20:41:01.133132,251103,-1289,-407,-144,-873,-757,170,367,305,-59
989,1,2022-09-15T20:41:01.139402,251109,-1305,-377,-134,-612,-572,-88,367,305,-59
990,1,2022-09-15T20:41:01.146897,251115,-1305,-377,-134,-612,-572,-88,367,305,-59
991,1,2022-09-15T20:41:01.152574,251122,-1305,-377,-134,-612,-572,-88,367,305,-59
992,1,2022-09-15T20:41:01.158648,251128,-1305,-377,-134,-612,-572,-88,367,305,-59
993,1,2022-09-15T20:41:01.164638,251134,-1337,-360,-132,-355,-365,-145,367,305,-59
994,1,2022-09-15T20:41:01.172540,251141,-1337,-360,-132,-355,-365,-145,367,305,-59
995,1,2022-09-15T20:41:01.177781,251148,-1337,-360,-132,-355,-365,-145,367,305,-59
996,1,2022-09-15T20:41:01.184027,251153,-1328,-364,-130,0,-181,13,367,305,-59
997,1,2022-09-15T20:41:01.190172,251160,-1328,-364,-130,0,-181,13,367,305,-59
998,1,2022-09-15T20:41:01.195658,251165,-1328,-364,-130,0,-181,13,367,305,-59
999,1,2022-09-15T20:41:01.203020,251172,-1312,-352,-129,339,61,6,368,302,-54
1000,1,2022-09-15T20:41:01.208658,251177,-1312,-352,-129,339,61,6,368,302,-54
1001,1,2022-09-15T20:41:01.214285,251184,-1312,-352,-129,339,61,6,368,302,-54
1002,1,2022-09-15T20:41:01.221138,251190,-1299,-319,-144,588,350,-116,368,302,-54
1003,1,2022-09-15T20:41:01.227967,251197,-1299,-319,-144,588,350,-116,368,302,-54
1004,1,2022-09-15T20:41:01.233285,251202,-1299,-319,-144,588,350,-116,368,302,-54
1005,1,2022-09-15T20:41:01.239913,251209,-1325,-281,-157,716,622,-214,368,302,-54
1006,1,2022-09-15T20:41:01.249550,251218,-1325,-281,-157,716,622,-214,368,302,-54
1007,1,2022-09-15T20:41:01.255179,251225,-1325,-281,-157,716,622,-214,368,302,-54
1008,1,2022-09-15T20:41:01.261872,251231,-1342,-289,-168,776,775,-207,368,302,-54
1009,1,2022-09-15T20:41:01.268997,251238,-1342,-289,-168,776,775,-207,368,302,-54
1010,1,2022-09-15T20:41:01.274914,251244,-1342,-289,-168,776,775,-207,368,302,-54
1011,1,2022-09-15T20:41:01.282400,251251,-1307,-306,-195,756,804,-259,368,302,-54
1012,1,2022-09-15T20:41:01.289547,251258,-1307,-306,-195,756,804,-259,368,302,-54
1013,1,2022-09-15T20:41:01.296116,251265,-1307,-306,-195,756,804,-259,368,302,-54
1014,1,2022-09-15T20:41:01.307829,251276,-1304,-304,-202,582,944,-600,368,302,-54
1015,1,2022-09-15T20:41:01.313014,251282,-1304,-304,-202,582,944,-600,368,302,-54
1016,1,2022-09-15T20:41:01.319992,251289,-1307,-303,-206,356,944,-869,366,304,-44
1017,1,2022-09-15T20:41:01.330915,251299,-1307,-303,-206,356,944,-869,366,304,-44
1018,1,2022-09-15T20:41:01.336395,251305,-1307,-303,-206,356,944,-869,366,304,-44
1019,1,2022-09-15T20:41:01.344044,251312,-1316,-323,-191,149,870,-1017,366,304,-44
1020,1,2022-09-15T20:41:01.354792,251324,-1316,-323,-191,149,870,-1017,366,304,-44
1021,1,2022-09-15T20:41:01.361986,251331,-1317,-330,-194,-88,744,-1145,366,304,-44
1022,1,2022-09-15T20:41:01.370350,251336,-1317,-330,-194,-88,744,-1145,366,304,-44
1023,1,2022-09-15T20:41:01.377529,251346,-1317,-330,-194,-88,744,-1145,366,304,-44
1024,1,2022-09-15T20:41:01.384563,251354,-1312,-346,-180,-363,601,-1309,366,304,-44
1025,1,2022-09-15T20:41:01.390709,251360,-1312,-346,-180,-363,601,-1309,366,304,-44
1026,1,2022-09-15T20:41:01.398818,251366,-1312,-346,-180,-363,601,-1309,366,304,-44
1027,1,2022-09-15T20:41:01.406749,251376,-1313,-358,-182,-688,437,-1469,366,304,-44
1028,1,2022-09-15T20:41:01.413249,251382,-1313,-358,-182,-688,437,-1469,366,304,-44
1029,1,2022-09-15T20:41:01.420443,251388,-1302,-374,-194,-1000,329,-1471,366,304,-44
1030,1,2022-09-15T20:41:01.432454,251401,-1302,-374,-194,-1000,329,-1471,366,304,-44
1031,1,2022-09-15T20:41:01.438168,251407,-1302,-374,-194,-1000,329,-1471,366,304,-44
1032,1,2022-09-15T20:41:01.446287,251414,-1319,-394,-188,-1236,376,-1358,366,304,-44
1033,1,2022-09-15T20:41:01.456780,251426,-1319,-394,-188,-1236,376,-1358,366,304,-44
1034,1,2022-09-15T20:41:01.463374,251432,-1331,-418,-184,-1361,388,-1182,374,300,-48
1035,1,2022-09-15T20:41:01.473773,251440,-1331,-418,-184,-1361,388,-1182,374,300,-48
1036,1,2022-09-15T20:41:01.479843,251449,-1343,-435,-187,-1381,325,-1057,374,300,-48
1037,1,2022-09-15T20:41:01.487203,251456,-1343,-435,-187,-1381,325,-1057,374,300,-48
1038,1,2022-09-15T20:41:01.493057,251462,-1343,-435,-187,-1381,325,-1057,374,300,-48
1039,1,2022-09-15T20:41:01.503960,251472,-1343,-435,-187,-1381,325,-1057,374,300,-48
1040,1,2022-09-15T20:41:01.509548,251479,-1343,-435,-187,-1381,325,-1057,374,300,-48
1041,1,2022-09-15T20:41:01.515056,251484,-1343,-435,-187,-1381,325,-1057,374,300,-48
1042,1,2022-09-15T20:41:01.523460,251491,-1323,-437,-194,-1178,122,-632,374,300,-48
1043,1,2022-09-15T20:41:01.532303,251501,-1323,-437,-194,-1178,122,-632,374,300,-48
1044,1,2022-09-15T20:41:01.538885,251508,-1323,-437,-194,-1178,122,-632,374,300,-48
1045,1,2022-09-15T20:41:01.547749,251513,-1323,-441,-197,-1050,157,-496,374,300,-48
1046,1,2022-09-15T20:41:01.556219,251526,-1323,-441,-197,-1050,157,-496,374,300,-48
1047,1,2022-09-15T20:41:01.561406,251531,-1331,-434,-200,-936,170,-487,374,300,-48
1048,1,2022-09-15T20:41:01.569631,251538,-1331,-434,-200,-936,170,-487,374,300,-48
1049,1,2022-09-15T20:41:01.577164,251546,-1331,-434,-200,-936,170,-487,374,300,-48
1050,1,2022-09-15T20:41:01.585105,251554,-1325,-403,-194,-851,41,-413,371,305,-45
1051,1,2022-09-15T20:41:01.591448,251560,-1325,-403,-194,-851,41,-413,371,305,-45
1052,1,2022-09-15T20:41:01.597658,251567,-1325,-403,-194,-851,41,-413,371,305,-45
1053,1,2022-09-15T20:41:01.607846,251577,-1345,-386,-183,-874,-106,-165,371,305,-45
1054,1,2022-09-15T20:41:01.614372,251584,-1345,-386,-183,-874,-106,-165,371,305,-45
1055,1,2022-09-15T20:41:01.621490,251590,-1296,-408,-196,-868,-313,209,371,305,-45
1056,1,2022-09-15T20:41:01.632593,251601,-1296,-408,-196,-868,-313,209,371,305,-45
1057,1,2022-09-15T20:41:01.637733,251608,-1296,-408,-196,-868,-313,209,371,305,-45
1058,1,2022-09-15T20:41:01.645045,251614,-1280,-419,-188,-866,-338,174,371,305,-45
1059,1,2022-09-15T20:41:01.657372,251627,-1280,-419,-188,-866,-338,174,371,305,-45
1060,1,2022-09-15T20:41:01.665350,251634,-1290,-407,-166,-865,-296,-125,371,305,-45
1061,1,2022-09-15T20:41:01.673528,251641,-1290,-407,-166,-865,-296,-125,371,305,-45
1062,1,2022-09-15T20:41:01.682810,251652,-1299,-384,-172,-858,-378,-285,371,305,-45
1063,1,2022-09-15T20:41:01.688721,251658,-1299,-384,-172,-858,-378,-285,371,305,-45
1064,1,2022-09-15T20:41:01.695587,251663,-1299,-384,-172,-858,-378,-285,371,305,-45
1065,1,2022-09-15T20:41:01.704782,251674,-1298,-379,-172,-936,-411,-252,373,305,-49
1066,1,2022-09-15T20:41:01.711406,251680,-1298,-379,-172,-936,-411,-252,373,305,-49
1067,1,2022-09-15T20:41:01.717694,251686,-1298,-379,-172,-936,-411,-252,373,305,-49
1068,1,2022-09-15T20:41:01.728092,251698,-1298,-379,-172,-936,-411,-252,373,305,-49
1069,1,2022-09-15T20:41:01.734779,251704,-1298,-379,-172,-936,-411,-252,373,305,-49
1070,1,2022-09-15T20:41:01.741250,251710,-1322,-381,-156,-1153,-192,115,373,305,-49
1071,1,2022-09-15T20:41:01.751575,251720,-1322,-381,-156,-1153,-192,115,373,305,-49
1072,1,2022-09-15T20:41:01.758293,251727,-1322,-381,-156,-1153,-192,115,373,305,-49
1073,1,2022-09-15T20:41:01.765513,251735,-1319,-394,-150,-1090,-277,245,373,305,-49
1074,1,2022-09-15T20:41:01.776115,251745,-1319,-394,-150,-1090,-277,245,373,305,-49
1075,1,2022-09-15T20:41:01.783101,251752,-1269,-382,-171,-667,-464,253,373,305,-49
1076,1,2022-09-15T20:41:01.789921,251759,-1269,-382,-171,-667,-464,253,373,305,-49
1077,1,2022-09-15T20:41:01.796850,251765,-1269,-382,-171,-667,-464,253,373,305,-49
1078,1,2022-09-15T20:41:01.806376,251776,-1254,-400,-170,-476,-319,88,373,305,-49
1079,1,2022-09-15T20:41:01.812780,251782,-1254,-400,-170,-476,-319,88,373,305,-49
1080,1,2022-09-15T20:41:01.821776,251790,-1294,-395,-166,-729,-49,-225,368,302,-52
1081,1,2022-09-15T20:41:01.831414,251801,-1294,-395,-166,-729,-49,-225,368,302,-52
1082,1,2022-09-15T20:41:01.836782,251806,-1294,-395,-166,-729,-49,-225,368,302,-52
1083,1,2022-09-15T20:41:01.844917,251812,-1310,-405,-170,-1014,-40,-358,368,302,-52
1084,1,2022-09-15T20:41:01.855203,251825,-1310,-405,-170,-1014,-40,-358,368,302,-52
1085,1,2022-09-15T20:41:01.862021,251831,-1291,-422,-194,-1184,-190,-252,368,302,-52
1086,1,2022-09-15T20:41:01.869728,251838,-1291,-422,-194,-1184,-190,-252,368,302,-52
1087,1,2022-09-15T20:41:01.876035,251845,-1291,-422,-194,-1184,-190,-252,368,302,-52
1088,1,2022-09-15T20:41:01.884959,251854,-1327,-428,-184,-1304,-42,-207,368,302,-52
1089,1,2022-09-15T20:41:01.892820,251862,-1327,-428,-184,-1304,-42,-207,368,302,-52
1090,1,2022-09-15T20:41:01.902072,251872,-1323,-434,-189,-1346,-67,51,368,302,-52
1091,1,2022-09-15T20:41:01.912074,251881,-1323,-434,-189,-1346,-67,51,368,302,-52
1092,1,2022-09-15T20:41:01.917934,251887,-1323,-434,-189,-1346,-67,51,368,302,-52
1093,1,2022-09-15T20:41:01.930295,251898,-1366,-391,-178,-1497,-76,218,368,302,-52
1094,1,2022-09-15T20:41:01.937461,251907,-1366,-391,-178,-1497,-76,218,368,302,-52
1095,1,2022-09-15T20:41:01.945589,251913,-1403,-382,-174,-1580,-311,675,368,302,-52
1096,1,2022-09-15T20:41:01.954998,251923,-1403,-382,-174,-1580,-311,675,368,302,-52
1097,1,2022-09-15T20:41:01.962378,251932,-1325,-393,-194,-1643,-719,1116,369,299,-53
1098,1,2022-09-15T20:41:01.971060,251938,-1325,-393,-194,-1643,-719,1116,369,299,-53
1099,1,2022-09-15T20:41:01.977784,251947,-1325,-393,-194,-1643,-719,1116,369,299,-53
1100,1,2022-09-15T20:41:01.985765,251956,-1310,-363,-209,-1875,-711,1027,369,299,-53
1101,1,2022-09-15T20:41:01.992910,251962,-1310,-363,-209,-1875,-711,1027,369,299,-53
1102,1,2022-09-15T20:41:02.004540,251973,-1371,-356,-174,-2197,-599,939,369,299,-53
1103,1,2022-09-15T20:41:02.011262,251980,-1371,-356,-174,-2197,-599,939,369,299,-53
1104,1,2022-09-15T20:41:02.016934,251986,-1371,-356,-174,-2197,-599,939,369,299,-53
1105,1,2022-09-15T20:41:02.025803,251995,-1357,-356,-173,-2461,-1034,1097,369,299,-53
1106,1,2022-09-15T20:41:02.034227,252004,-1357,-356,-173,-2461,-1034,1097,369,299,-53
1107,1,2022-09-15T20:41:02.041149,252010,-1298,-356,-187,-2762,-1495,1099,369,299,-53
1108,1,2022-09-15T20:41:02.052579,252021,-1298,-356,-187,-2762,-1495,1099,369,299,-53
1109,1,2022-09-15T20:41:02.060148,252029,-1266,-379,-197,-3059,-1536,860,369,299,-53
1110,1,2022-09-15T20:41:02.071248,252039,-1266,-379,-197,-3059,-1536,860,369,299,-53
1111,1,2022-09-15T20:41:02.076748,252046,-1266,-379,-197,-3059,-1536,860,369,299,-53
1112,1,2022-09-15T20:41:02.083365,252053,-1285,-409,-183,-3200,-1341,457,370,300,-44
1113,1,2022-09-15T20:41:02.089943,252059,-1285,-409,-183,-3200,-1341,457,370,300,-44
1114,1,2022-09-15T20:41:02.097021,252065,-1285,-409,-183,-3200,-1341,457,370,300,-44
1115,1,2022-09-15T20:41:02.106018,252075,-1301,-419,-181,-3215,-1309,148,370,300,-44
1116,1,2022-09-15T20:41:02.112644,252082,-1301,-419,-181,-3215,-1309,148,370,300,-44
1117,1,2022-09-15T20:41:02.120908,252089,-1320,-413,-179,-3096,-1357,171,370,300,-44
1118,1,2022-09-15T20:41:02.129022,252098,-1320,-413,-179,-3096,-1357,171,370,300,-44
1119,1,2022-09-15T20:41:02.134777,252104,-1320,-413,-179,-3096,-1357,171,370,300,-44
1120,1,2022-09-15T20:41:02.141379,252111,-1362,-403,-153,-2943,-1439,382,370,300,-44
1121,1,2022-09-15T20:41:02.151762,252121,-1362,-403,-153,-2943,-1439,382,370,300,-44
1122,1,2022-09-15T20:41:02.157073,252127,-1362,-403,-153,-2943,-1439,382,370,300,-44
1123,1,2022-09-15T20:41:02.163822,252133,-1332,-379,-158,-2744,-1803,878,370,300,-44
1124,1,2022-09-15T20:41:02.171452,252140,-1332,-379,-158,-2744,-1803,878,370,300,-44
1125,1,2022-09-15T20:41:02.178831,252148,-1332,-379,-158,-2744,-1803,878,370,300,-44
1126,1,2022-09-15T20:41:02.184952,252153,-1334,-377,-151,-2602,-1868,1113,370,300,-44
1127,1,2022-09-15T20:41:02.191669,252161,-1334,-377,-151,-2602,-1868,1113,370,300,-44
1128,1,2022-09-15T20:41:02.199322,252168,-1334,-377,-151,-2602,-1868,1113,370,300,-44
1129,1,2022-09-15T20:41:02.207063,252176,-1376,-353,-136,-2413,-1716,1119,372,304,-52
1130,1,2022-09-15T20:41:02.214665,252184,-1376,-353,-136,-2413,-1716,1119,372,304,-52
1131,1,2022-09-15T20:41:02.221669,252189,-1376,-353,-136,-2413,-1716,1119,372,304,-52
1132,1,2022-09-15T20:41:02.228242,252196,-1343,-342,-152,-2003,-1632,1418,372,304,-52
1133,1,2022-09-15T20:41:02.236346,252206,-1343,-342,-152,-2003,-1632,1418,372,304,-52
1134,1,2022-09-15T20:41:02.312424,252212,-1340,-348,-154,-1650,-1236,1462,372,304,-52
1135,1,2022-09-15T20:41:02.319973,252289,-1348,-285,-146,-602,-774,956,372,304,-52
1136,1,2022-09-15T20:41:02.334561,252303,-1346,-282,-134,-466,-1031,876,364,302,-52
1137,1,2022-09-15T20:41:02.343673,252312,-1300,-275,-138,-548,-1316,795,364,302,-52
1138,1,2022-09-15T20:41:02.355018,252324,-1300,-275,-138,-548,-1316,795,364,302,-52
1139,1,2022-09-15T20:41:02.362781,252332,-1289,-273,-135,-890,-1296,448,364,302,-52
1140,1,2022-09-15T20:41:02.372277,252339,-1289,-273,-135,-890,-1296,448,364,302,-52
1141,1,2022-09-15T20:41:02.379906,252349,-1302,-292,-127,-1221,-1101,150,364,302,-52
1142,1,2022-09-15T20:41:02.389090,252358,-1302,-292,-127,-1221,-1101,150,364,302,-52
1143,1,2022-09-15T20:41:02.396284,252364,-1302,-292,-127,-1221,-1101,150,364,302,-52
1144,1,2022-09-15T20:41:02.405583,252375,-1378,-305,-91,-1497,-891,-138,364,302,-52
1145,1,2022-09-15T20:41:02.414236,252384,-1378,-305,-91,-1497,-891,-138,364,302,-52
1146,1,2022-09-15T20:41:02.423441,252391,-1371,-318,-77,-1555,-1193,76,364,302,-52
1147,1,2022-09-15T20:41:02.431241,252400,-1371,-318,-77,-1555,-1193,76,364,302,-52
1148,1,2022-09-15T20:41:02.437539,252406,-1371,-318,-77,-1555,-1193,76,364,302,-52
1149,1,2022-09-15T20:41:02.445594,252413,-1337,-317,-64,-1561,-1412,312,364,302,-52
1150,1,2022-09-15T20:41:02.451011,252421,-1337,-317,-64,-1561,-1412,312,364,302,-52
1151,1,2022-09-15T20:41:02.456610,252426,-1337,-317,-64,-1561,-1412,312,364,302,-52
1152,1,2022-09-15T20:41:02.466968,252436,-1364,-315,-32,-1565,-1325,406,373,299,-51
1153,1,2022-09-15T20:41:02.473975,252443,-1364,-315,-32,-1565,-1325,406,373,299,-51
1154,1,2022-09-15T20:41:02.481290,252450,-1321,-300,-46,-1522,-1449,591,373,299,-51
1155,1,2022-09-15T20:41:02.490180,252460,-1321,-300,-46,-1522,-1449,591,373,299,-51
1156,1,2022-09-15T20:41:02.496005,252465,-1321,-300,-46,-1522,-1449,591,373,299,-51
1157,1,2022-09-15T20:41:02.503236,252473,-1271,-282,-78,-1614,-1383,615,373,299,-51
1158,1,2022-09-15T20:41:02.509188,252478,-1271,-282,-78,-1614,-1383,615,373,299,-51
1159,1,2022-09-15T20:41:02.514829,252484,-1271,-282,-78,-1614,-1383,615,373,299,-51
1160,1,2022-09-15T20:41:02.522759,252490,-1327,-255,-97,-1853,-786,452,373,299,-51
1161,1,2022-09-15T20:41:02.533221,252503,-1327,-255,-97,-1853,-786,452,373,299,-51
1162,1,2022-09-15T20:41:02.539530,252509,-1358,-269,-120,-1826,-264,790,373,299,-51
1163,1,2022-09-15T20:41:02.550268,252519,-1358,-269,-120,-1826,-264,790,373,299,-51
1164,1,2022-09-15T20:41:02.556322,252526,-1358,-269,-120,-1826,-264,790,373,299,-51
1165,1,2022-09-15T20:41:02.563181,252532,-1379,-288,-106,-1600,247,818,373,299,-51
1166,1,2022-09-15T20:41:02.570832,252539,-1379,-288,-106,-1600,247,818,373,299,-51
1167,1,2022-09-15T20:41:02.577413,252547,-1379,-288,-106,-1600,247,818,373,299,-51
1168,1,2022-09-15T20:41:02.584953,252554,-1432,-318,-31,-1328,359,549,366,306,-40
1169,1,2022-09-15T20:41:02.592036,252561,-1432,-318,-31,-1328,359,549,366,306,-40
1170,1,2022-09-15T20:41:02.598679,252568,-1432,-318,-31,-1328,359,549,366,306,-40
1171,1,2022-09-15T20:41:02.608742,252578,-1388,-288,-6,-1202,-611,269,366,306,-40
1172,1,2022-09-15T20:41:02.615091,252584,-1388,-288,-6,-1202,-611,269,366,306,-40
1173,1,2022-09-15T20:41:02.624393,252593,-1282,-275,-37,-1517,-1750,-93,366,306,-40
1174,1,2022-09-15T20:41:02.634088,252604,-1282,-275,-37,-1517,-1750,-93,366,306,-40
1175,1,2022-09-15T20:41:02.640758,252610,-1144,-278,-103,-1987,-1942,-274,366,306,-40
1176,1,2022-09-15T20:41:02.649562,252618,-1144,-278,-103,-1987,-1942,-274,366,306,-40
1177,1,2022-09-15T20:41:02.657680,252626,-1144,-278,-103,-1987,-1942,-274,366,306,-40
1178,1,2022-09-15T20:41:02.663282,252633,-1279,-256,-119,-2340,-792,-553,366,306,-40
1179,1,2022-09-15T20:41:02.670860,252638,-1279,-256,-119,-2340,-792,-553,366,306,-40
1180,1,2022-09-15T20:41:02.677545,252647,-1279,-256,-119,-2340,-792,-553,366,306,-40
1181,1,2022-09-15T20:41:02.685878,252655,-1475,-220,-115,-2070,308,44,366,306,-40
1182,1,2022-09-15T20:41:02.692134,252661,-1475,-220,-115,-2070,308,44,366,306,-40
1183,1,2022-09-15T20:41:02.700236,252668,-1475,-220,-115,-2070,308,44,366,306,-40
1184,1,2022-09-15T20:41:02.709247,252679,-1521,-247,-98,-1320,745,1457,366,302,-40
1185,1,2022-09-15T20:41:02.714183,252684,-1521,-247,-98,-1320,745,1457,366,302,-40
1186,1,2022-09-15T20:41:02.722004,252691,-1458,-279,-45,-544,563,1985,366,302,-40
1187,1,2022-09-15T20:41:02.731047,252699,-1458,-279,-45,-544,563,1985,366,302,-40
1188,1,2022-09-15T20:41:02.737364,252706,-1458,-279,-45,-544,563,1985,366,302,-40
1189,1,2022-09-15T20:41:02.744275,252712,-1364,-247,-27,-82,-484,1425,366,302,-40
1190,1,2022-09-15T20:41:02.753514,252723,-1364,-247,-27,-82,-484,1425,366,302,-40
1191,1,2022-09-15T20:41:02.760329,252730,-1200,-222,-86,-261,-1577,334,366,302,-40
1192,1,2022-09-15T20:41:02.768723,252736,-1200,-222,-86,-261,-1577,334,366,302,-40
1193,1,2022-09-15T20:41:02.776101,252745,-1200,-222,-86,-261,-1577,334,366,302,-40
1194,1,2022-09-15T20:41:02.783150,252752,-1157,-277,-98,-899,-1482,-1147,366,302,-40
1195,1,2022-09-15T20:41:02.790060,252760,-1157,-277,-98,-899,-1482,-1147,366,302,-40
1196,1,2022-09-15T20:41:02.797008,252766,-1157,-277,-98,-899,-1482,-1147,366,302,-40
1197,1,2022-09-15T20:41:02.807560,252777,-1239,-270,-119,-1385,-918,-2304,366,302,-40
1198,1,2022-09-15T20:41:02.813560,252782,-1239,-270,-119,-1385,-918,-2304,366,302,-40
1199,1,2022-09-15T20:41:02.820126,252789,-1239,-270,-119,-1385,-918,-2304,366,302,-40
1200,1,2022-09-15T20:41:02.828340,252797,-1444,-264,-92,-1708,-258,-2678,361,307,-39
1201,1,2022-09-15T20:41:02.834108,252804,-1444,-264,-92,-1708,-258,-2678,361,307,-39
1202,1,2022-09-15T20:41:02.842006,252812,-1576,-259,-70,-1644,-77,-1931,361,307,-39
1203,1,2022-09-15T20:41:02.851604,252820,-1576,-259,-70,-1644,-77,-1931,361,307,-39
1204,1,2022-09-15T20:41:02.857382,252827,-1576,-259,-70,-1644,-77,-1931,361,307,-39
1205,1,2022-09-15T20:41:02.865587,252834,-1468,-312,-41,-1243,-387,-355,361,307,-39
1206,1,2022-09-15T20:41:02.873132,252840,-1468,-312,-41,-1243,-387,-355,361,307,-39
1207,1,2022-09-15T20:41:02.879267,252849,-1468,-312,-41,-1243,-387,-355,361,307,-39
1208,1,2022-09-15T20:41:02.886346,252856,-1258,-359,-33,-927,-776,206,361,307,-39
1209,1,2022-09-15T20:41:02.892222,252861,-1258,-359,-33,-927,-776,206,361,307,-39
1210,1,2022-09-15T20:41:02.900959,252870,-1121,-370,-60,-1039,-1040,-753,361,307,-39
1211,1,2022-09-15T20:41:02.909668,252878,-1121,-370,-60,-1039,-1040,-753,361,307,-39
1212,1,2022-09-15T20:41:02.914718,252884,-1121,-370,-60,-1039,-1040,-753,361,307,-39
1213,1,2022-09-15T20:41:02.922189,252891,-1170,-257,-138,-1637,-864,-2303,361,307,-39
1214,1,2022-09-15T20:41:02.932235,252901,-1170,-257,-138,-1637,-864,-2303,361,307,-39
1215,1,2022-09-15T20:41:02.937963,252907,-1170,-257,-138,-1637,-864,-2303,361,307,-39
1216,1,2022-09-15T20:41:02.946222,252914,-1400,-244,-138,-2064,-114,-2335,363,303,-43
1217,1,2022-09-15T20:41:02.956275,252925,-1400,-244,-138,-2064,-114,-2335,363,303,-43
1218,1,2022-09-15T20:41:02.963164,252933,-1474,-257,-130,-1842,206,-1188,363,303,-43
1219,1,2022-09-15T20:41:02.969054,252938,-1474,-257,-130,-1842,206,-1188,363,303,-43
1220,1,2022-09-15T20:41:02.977426,252946,-1474,-257,-130,-1842,206,-1188,363,303,-43
1221,1,2022-09-15T20:41:02.984380,252954,-1429,-260,-128,-1546,197,-367,363,303,-43
1222,1,2022-09-15T20:41:02.990714,252960,-1429,-260,-128,-1546,197,-367,363,303,-43
1223,1,2022-09-15T20:41:02.996718,252965,-1429,-260,-128,-1546,197,-367,363,303,-43
1224,1,2022-09-15T20:41:03.008308,252978,-1383,-323,-60,-1434,-20,-175,363,303,-43
1225,1,2022-09-15T20:41:03.015016,252985,-1383,-323,-60,-1434,-20,-175,363,303,-43
1226,1,2022-09-15T20:41:03.022319,252991,-1221,-376,5,-1448,-1113,-562,363,303,-43
1227,1,2022-09-15T20:41:03.032752,253002,-1221,-376,5,-1448,-1113,-562,363,303,-43
1228,1,2022-09-15T20:41:03.037729,253007,-1221,-376,5,-1448,-1113,-562,363,303,-43
1229,1,2022-09-15T20:41:03.047079,253014,-1121,-405,28,-1892,-2212,-2014,363,303,-43
1230,1,2022-09-15T20:41:03.056818,253026,-1121,-405,28,-1892,-2212,-2014,363,303,-43
1231,1,2022-09-15T20:41:03.063790,253033,-1155,-410,2,-2460,-2437,-3291,363,303,-43
1232,1,2022-09-15T20:41:03.072520,253040,-1155,-410,2,-2460,-2437,-3291,363,303,-43
1233,1,2022-09-15T20:41:03.080537,253049,-1155,-410,2,-2460,-2437,-3291,363,303,-43
1234,1,2022-09-15T20:41:03.085742,253056,-1155,-410,2,-2460,-2437,-3291,368,302,-28
1235,1,2022-09-15T20:41:03.091360,253061,-1155,-410,2,-2460,-2437,-3291,368,302,-28
1236,1,2022-09-15T20:41:03.099315,253068,-1155,-410,2,-2460,-2437,-3291,368,302,-28
1237,1,2022-09-15T20:41:03.106236,253076,-1341,-489,-25,-2177,-700,-2536,368,302,-28
1238,1,2022-09-15T20:41:03.113238,253082,-1341,-489,-25,-2177,-700,-2536,368,302,-28
1239,1,2022-09-15T20:41:03.120972,253088,-1341,-489,-25,-2177,-700,-2536,368,302,-28
1240,1,2022-09-15T20:41:03.129546,253100,-1397,-482,-40,-1526,35,-1788,368,302,-28
1241,1,2022-09-15T20:41:03.135984,253106,-1397,-482,-40,-1526,35,-1788,368,302,-28
1242,1,2022-09-15T20:41:03.143851,253113,-1428,-439,-58,-980,317,-1267,368,302,-28
1243,1,2022-09-15T20:41:03.156313,253126,-1428,-439,-58,-980,317,-1267,368,302,-28
1244,1,2022-09-15T20:41:03.162941,253132,-1441,-385,-60,-673,176,-798,368,302,-28
1245,1,2022-09-15T20:41:03.170269,253138,-1441,-385,-60,-673,176,-798,368,302,-28
1246,1,2022-09-15T20:41:03.179166,253148,-1441,-385,-60,-673,176,-798,368,302,-28
1247,1,2022-09-15T20:41:03.186264,253156,-1392,-330,-42,-578,-186,-300,368,302,-28
1248,1,2022-09-15T20:41:03.193193,253162,-1392,-330,-42,-578,-186,-300,368,302,-28
1249,1,2022-09-15T20:41:03.201536,253170,-1324,-300,-49,-713,-549,150,370,294,-38
1250,1,2022-09-15T20:41:03.213064,253182,-1324,-300,-49,-713,-549,150,370,294,-38
1251,1,2022-09-15T20:41:03.218983,253188,-1324,-300,-49,-713,-549,150,370,294,-38
1252,1,2022-09-15T20:41:03.230744,253199,-1288,-285,-42,-1013,-617,442,370,294,-38
1253,1,2022-09-15T20:41:03.237414,253207,-1288,-285,-42,-1013,-617,442,370,294,-38
1254,1,2022-09-15T20:41:03.245189,253213,-1233,-305,-41,-1349,-614,588,370,294,-38
1255,1,2022-09-15T20:41:03.258058,253228,-1233,-305,-41,-1349,-614,588,370,294,-38
1256,1,2022-09-15T20:41:03.264383,253234,-1230,-344,-51,-1669,-425,239,370,294,-38
1257,1,2022-09-15T20:41:03.270981,253240,-1230,-344,-51,-1669,-425,239,370,294,-38
1258,1,2022-09-15T20:41:03.276754,253246,-1230,-344,-51,-1669,-425,239,370,294,-38
1259,1,2022-09-15T20:41:03.284214,253254,-1257,-390,-30,-1743,-80,-57,370,294,-38
1260,1,2022-09-15T20:41:03.290462,253260,-1257,-390,-30,-1743,-80,-57,370,294,-38
1261,1,2022-09-15T20:41:03.296047,253265,-1257,-390,-30,-1743,-80,-57,370,294,-38
1262,1,2022-09-15T20:41:03.304331,253274,-1301,-396,-6,-1536,133,-11,370,294,-38
1263,1,2022-09-15T20:41:03.311689,253282,-1301,-396,-6,-1536,133,-11,370,294,-38
1264,1,2022-09-15T20:41:03.316746,253286,-1301,-396,-6,-1536,133,-11,370,294,-38
1265,1,2022-09-15T20:41:03.348431,253318,-1276,-383,-26,-991,-38,757,377,299,-39
1266,1,2022-09-15T20:41:03.358620,253328,-1276,-383,-26,-991,-38,757,377,299,-39
1267,1,2022-09-15T20:41:03.365439,253334,-1216,-403,-49,-922,114,664,377,299,-39
1268,1,2022-09-15T20:41:03.372591,253341,-1216,-403,-49,-922,114,664,377,299,-39
1269,1,2022-09-15T20:41:03.380681,253349,-1246,-409,-34,-890,503,187,377,299,-39
1270,1,2022-09-15T20:41:03.389051,253359,-1246,-409,-34,-890,503,187,377,299,-39
1271,1,2022-09-15T20:41:03.395124,253364,-1246,-409,-34,-890,503,187,377,299,-39
1272,1,2022-09-15T20:41:03.403756,253373,-1306,-381,-21,-833,472,-81,377,299,-39
1273,1,2022-09-15T20:41:03.412520,253381,-1306,-381,-21,-833,472,-81,377,299,-39
1274,1,2022-09-15T20:41:03.418674,253387,-1306,-381,-21,-833,472,-81,377,299,-39
1275,1,2022-09-15T20:41:03.430178,253400,-1299,-354,-26,-852,-4,302,377,299,-39
1276,1,2022-09-15T20:41:03.436743,253407,-1299,-354,-26,-852,-4,302,377,299,-39
1277,1,2022-09-15T20:41:03.445452,253414,-1299,-354,-26,-852,-4,302,371,299,-41
1278,1,2022-09-15T20:41:03.451447,253421,-1299,-354,-26,-852,-4,302,371,299,-41
1279,1,2022-09-15T20:41:03.456721,253426,-1299,-354,-26,-852,-4,302,371,299,-41
1280,1,2022-09-15T20:41:03.463470,253432,-1268,-401,-35,-1260,-30,1546,371,299,-41
1281,1,2022-09-15T20:41:03.472014,253440,-1268,-401,-35,-1260,-30,1546,371,299,-41
1282,1,2022-09-15T20:41:03.481891,253452,-1211,-420,-59,-1296,256,1840,371,299,-41
1283,1,2022-09-15T20:41:03.492397,253462,-1211,-420,-59,-1296,256,1840,371,299,-41
1284,1,2022-09-15T20:41:03.499504,253468,-1211,-420,-59,-1296,256,1840,371,299,-41
1285,1,2022-09-15T20:41:03.508513,253477,-1312,-345,-68,-1370,910,1488,371,299,-41
1286,1,2022-09-15T20:41:03.514848,253485,-1312,-345,-68,-1370,910,1488,371,299,-41
1287,1,2022-09-15T20:41:03.521694,253491,-1446,-298,-71,-1202,1296,1966,371,299,-41
1288,1,2022-09-15T20:41:03.531561,253501,-1446,-298,-71,-1202,1296,1966,371,299,-41
1289,1,2022-09-15T20:41:03.537519,253507,-1446,-298,-71,-1202,1296,1966,371,299,-41
1290,1,2022-09-15T20:41:03.546281,253514,-1355,-307,-97,-727,1041,3523,371,299,-41
1291,1,2022-09-15T20:41:03.555032,253524,-1355,-307,-97,-727,1041,3523,371,299,-41
1292,1,2022-09-15T20:41:03.562078,253532,-1356,-276,-80,-567,1014,3842,371,299,-41
1293,1,2022-09-15T20:41:03.568790,253538,-1356,-276,-80,-567,1014,3842,371,299,-41
1294,1,2022-09-15T20:41:03.576558,253546,-1356,-276,-80,-567,1014,3842,371,299,-41
1295,1,2022-09-15T20:41:03.584697,253554,-1367,-183,-107,-568,695,3790,366,302,-36
1296,1,2022-09-15T20:41:03.594065,253562,-1367,-183,-107,-568,695,3790,366,302,-36
1297,1,2022-09-15T20:41:03.601909,253571,-1330,-146,-133,-638,475,4059,366,302,-36
1298,1,2022-09-15T20:41:03.611480,253581,-1330,-146,-133,-638,475,4059,366,302,-36
1299,1,2022-09-15T20:41:03.616841,253586,-1330,-146,-133,-638,475,4059,366,302,-36
1300,1,2022-09-15T20:41:03.629390,253598,-1292,-148,-136,-755,453,3834,366,302,-36
1301,1,2022-09-15T20:41:03.638005,253607,-1292,-148,-136,-755,453,3834,366,302,-36
1302,1,2022-09-15T20:41:03.645333,253614,-1291,-196,-130,-907,483,2848,366,302,-36
1303,1,2022-09-15T20:41:03.652436,253622,-1291,-196,-130,-907,483,2848,366,302,-36
1304,1,2022-09-15T20:41:03.657912,253627,-1291,-196,-130,-907,483,2848,366,302,-36
1305,1,2022-09-15T20:41:03.664729,253634,-1268,-260,-102,-922,301,1537,366,302,-36
1306,1,2022-09-15T20:41:03.671400,253640,-1268,-260,-102,-922,301,1537,366,302,-36
1307,1,2022-09-15T20:41:03.676906,253646,-1268,-260,-102,-922,301,1537,366,302,-36
1308,1,2022-09-15T20:41:03.683952,253652,-1289,-242,-101,-1003,-47,-239,366,302,-36
1309,1,2022-09-15T20:41:03.690130,253659,-1289,-242,-101,-1003,-47,-239,366,302,-36
1310,1,2022-09-15T20:41:03.695813,253665,-1289,-242,-101,-1003,-47,-239,366,302,-36
1311,1,2022-09-15T20:41:03.703951,253673,-1298,-260,-81,-1091,-468,-1655,355,313,-37
1312,1,2022-09-15T20:41:03.710450,253680,-1298,-260,-81,-1091,-468,-1655,355,313,-37
1313,1,2022-09-15T20:41:03.715883,253685,-1298,-260,-81,-1091,-468,-1655,355,313,-37
1314,1,2022-09-15T20:41:03.721679,253690,-1268,-299,-71,-1161,-995,-2832,355,313,-37
1315,1,2022-09-15T20:41:03.730164,253699,-1268,-299,-71,-1161,-995,-2832,355,313,-37
1316,1,2022-09-15T20:41:03.736849,253706,-1268,-299,-71,-1161,-995,-2832,355,313,-37
1317,1,2022-09-15T20:41:03.745155,253714,-1273,-329,-42,-1348,-1291,-4031,355,313,-37
1318,1,2022-09-15T20:41:03.755443,253725,-1273,-329,-42,-1348,-1291,-4031,355,313,-37
1319,1,2022-09-15T20:41:03.762172,253731,-1323,-334,7,-1303,-1524,-4720,355,313,-37
1320,1,2022-09-15T20:41:03.770946,253739,-1323,-334,7,-1303,-1524,-4720,355,313,-37
1321,1,2022-09-15T20:41:03.779429,253749,-1323,-334,7,-1303,-1524,-4720,355,313,-37
1322,1,2022-09-15T20:41:03.784872,253754,-1300,-352,9,-1066,-1821,-4739,355,313,-37
1323,1,2022-09-15T20:41:03.790592,253760,-1300,-352,9,-1066,-1821,-4739,355,313,-37
1324,1,2022-09-15T20:41:03.798866,253765,-1300,-352,9,-1066,-1821,-4739,355,313,-37
1325,1,2022-09-15T20:41:03.807687,253776,-1271,-401,4,-943,-1800,-4545,355,313,-37
1326,1,2022-09-15T20:41:03.813849,253783,-1271,-401,4,-943,-1800,-4545,355,313,-37
1327,1,2022-09-15T20:41:03.821158,253789,-1271,-401,4,-943,-1800,-4545,355,313,-37
1328,1,2022-09-15T20:41:03.832242,253801,-1344,-426,47,-923,-1389,-4588,367,307,-29
1329,1,2022-09-15T20:41:03.839904,253809,-1344,-426,47,-923,-1389,-4588,367,307,-29
1330,1,2022-09-15T20:41:03.849732,253819,-1336,-405,19,-874,-1344,-4227,367,307,-29
1331,1,2022-09-15T20:41:03.856282,253826,-1336,-405,19,-874,-1344,-4227,367,307,-29
1332,1,2022-09-15T20:41:03.862809,253833,-1318,-432,9,-926,-1145,-3850,367,307,-29
1333,1,2022-09-15T20:41:03.870010,253840,-1318,-432,9,-926,-1145,-3850,367,307,-29
1334,1,2022-09-15T20:41:03.875363,253845,-1318,-432,9,-926,-1145,-3850,367,307,-29
1335,1,2022-09-15T20:41:03.882452,253852,-1344,-443,22,-970,-834,-3735,367,307,-29
1336,1,2022-09-15T20:41:03.892230,253861,-1344,-443,22,-970,-834,-3735,367,307,-29
1337,1,2022-09-15T20:41:03.898871,253868,-1344,-443,22,-970,-834,-3735,367,307,-29
1338,1,2022-09-15T20:41:03.906226,253875,-1328,-448,16,-822,-966,-3269,367,307,-29
1339,1,2022-09-15T20:41:03.913730,253883,-1328,-448,16,-822,-966,-3269,367,307,-29
1340,1,2022-09-15T20:41:03.919410,253888,-1328,-448,16,-822,-966,-3269,367,307,-29
1341,1,2022-09-15T20:41:03.928874,253897,-1275,-414,-10,-795,-1077,-2960,367,307,-29
1342,1,2022-09-15T20:41:03.937437,253906,-1275,-414,-10,-795,-1077,-2960,367,307,-29
1343,1,2022-09-15T20:41:03.944775,253914,-1323,-403,-13,-1018,-793,-2815,373,291,-29
1344,1,2022-09-15T20:41:03.950330,253920,-1323,-403,-13,-1018,-793,-2815,373,291,-29
1345,1,2022-09-15T20:41:03.955724,253925,-1323,-403,-13,-1018,-793,-2815,373,291,-29
1346,1,2022-09-15T20:41:03.961848,253932,-1265,-398,-40,-1222,-795,-2163,373,291,-29
1347,1,2022-09-15T20:41:03.969806,253939,-1265,-398,-40,-1222,-795,-2163,373,291,-29
1348,1,2022-09-15T20:41:03.975622,253944,-1265,-398,-40,-1222,-795,-2163,373,291,-29
1349,1,2022-09-15T20:41:03.984199,253954,-1278,-411,-53,-1426,-671,-1395,373,291,-29
1350,1,2022-09-15T20:41:03.991218,253961,-1278,-411,-53,-1426,-671,-1395,373,291,-29
1351,1,2022-09-15T20:41:03.997979,253966,-1278,-411,-53,-1426,-671,-1395,373,291,-29
1352,1,2022-09-15T20:41:04.005624,253975,-1302,-428,-30,-1720,-361,-1062,373,291,-29
1353,1,2022-09-15T20:41:04.012289,253981,-1302,-428,-30,-1720,-361,-1062,373,291,-29
1354,1,2022-09-15T20:41:04.018448,253987,-1302,-428,-30,-1720,-361,-1062,373,291,-29
1355,1,2022-09-15T20:41:04.027244,253997,-1141,-459,-79,-1835,-331,-735,373,291,-29
1356,1,2022-09-15T20:41:04.035479,254004,-1141,-459,-79,-1835,-331,-735,373,291,-29
1357,1,2022-09-15T20:41:04.043824,254012,-1286,-402,-64,-1902,-169,-669,373,291,-29
1358,1,2022-09-15T20:41:04.051186,254020,-1286,-402,-64,-1902,-169,-669,373,291,-29
1359,1,2022-09-15T20:41:04.057278,254026,-1286,-402,-64,-1902,-169,-669,373,291,-29
1360,1,2022-09-15T20:41:04.063702,254033,-1225,-448,-42,-2013,-57,-849,373,291,-29
1361,1,2022-09-15T20:41:04.069376,254039,-1225,-448,-42,-2013,-57,-849,373,291,-29
1362,1,2022-09-15T20:41:04.074745,254044,-1225,-448,-42,-2013,-57,-849,373,291,-29
1363,1,2022-09-15T20:41:04.080096,254050,-1225,-448,-42,-2013,-57,-849,373,291,-29
1364,1,2022-09-15T20:41:04.088347,254058,-1208,-446,-49,-1894,-315,-818,370,290,-28
1365,1,2022-09-15T20:41:04.098964,254065,-1208,-446,-49,-1894,-315,-818,370,290,-28
1366,1,2022-09-15T20:41:04.105688,254075,-1157,-453,-75,-1738,-444,-611,370,290,-28
1367,1,2022-09-15T20:41:04.112359,254082,-1157,-453,-75,-1738,-444,-611,370,290,-28
1368,1,2022-09-15T20:41:04.118777,254088,-1157,-453,-75,-1738,-444,-611,370,290,-28
1369,1,2022-09-15T20:41:04.127329,254096,-1146,-509,-60,-1631,-358,-538,370,290,-28
1370,1,2022-09-15T20:41:04.134711,254104,-1146,-509,-60,-1631,-358,-538,370,290,-28
1371,1,2022-09-15T20:41:04.139713,254109,-1146,-509,-60,-1631,-358,-538,370,290,-28
1372,1,2022-09-15T20:41:04.146715,254115,-1165,-508,-32,-1552,-396,-948,370,290,-28
1373,1,2022-09-15T20:41:04.156564,254126,-1165,-508,-32,-1552,-396,-948,370,290,-28
1374,1,2022-09-15T20:41:04.163110,254133,-1184,-487,-20,-1589,-793,-1555,370,290,-28
1375,1,2022-09-15T20:41:04.171713,254141,-1184,-487,-20,-1589,-793,-1555,370,290,-28
1376,1,2022-09-15T20:41:04.179430,254148,-1184,-487,-20,-1589,-793,-1555,370,290,-28
1377,1,2022-09-15T20:41:04.189101,254158,-1179,-487,-14,-1633,-1242,-1907,370,290,-28
1378,1,2022-09-15T20:41:04.196680,254164,-1179,-487,-14,-1633,-1242,-1907,370,290,-28
1379,1,2022-09-15T20:41:04.202929,254172,-1195,-464,-10,-1747,-1433,-2137,380,278,-32
1380,1,2022-09-15T20:41:04.213345,254183,-1195,-464,-10,-1747,-1433,-2137,380,278,-32
1381,1,2022-09-15T20:41:04.219290,254188,-1195,-464,-10,-1747,-1433,-2137,380,278,-32
1382,1,2022-09-15T20:41:04.231692,254201,-1190,-492,-4,-1788,-1351,-1900,380,278,-32
1383,1,2022-09-15T20:41:04.238055,254208,-1190,-492,-4,-1788,-1351,-1900,380,278,-32
1384,1,2022-09-15T20:41:04.245151,254214,-1169,-490,-1,-1787,-1188,-1685,380,278,-32
1385,1,2022-09-15T20:41:04.256203,254226,-1169,-490,-1,-1787,-1188,-1685,380,278,-32
1386,1,2022-09-15T20:41:04.265648,254235,-1166,-478,4,-1807,-1166,-1692,380,278,-32
1387,1,2022-09-15T20:41:04.272623,254241,-1166,-478,4,-1807,-1166,-1692,380,278,-32
1388,1,2022-09-15T20:41:04.278364,254247,-1166,-478,4,-1807,-1166,-1692,380,278,-32
1389,1,2022-09-15T20:41:04.284710,254254,-1141,-485,2,-1940,-1349,-2151,380,278,-32
1390,1,2022-09-15T20:41:04.291685,254261,-1141,-485,2,-1940,-1349,-2151,380,278,-32
1391,1,2022-09-15T20:41:04.297928,254267,-1141,-485,2,-1940,-1349,-2151,380,278,-32
1392,1,2022-09-15T20:41:04.302998,254272,-1141,-517,-4,-2024,-1527,-2725,380,278,-32
1393,1,2022-09-15T20:41:04.311362,254280,-1141,-517,-4,-2024,-1527,-2725,380,278,-32
1394,1,2022-09-15T20:41:04.319102,254287,-1141,-517,-4,-2024,-1527,-2725,380,278,-32
1395,1,2022-09-15T20:41:04.328622,254298,-1173,-515,-12,-1923,-1568,-3127,387,281,-25
1396,1,2022-09-15T20:41:04.335061,254305,-1173,-515,-12,-1923,-1568,-3127,387,281,-25
1397,1,2022-09-15T20:41:04.341484,254311,-1144,-517,-18,-1738,-1574,-3403,387,281,-25
1398,1,2022-09-15T20:41:04.350915,254319,-1144,-517,-18,-1738,-1574,-3403,387,281,-25
1399,1,2022-09-15T20:41:04.357092,254326,-1144,-517,-18,-1738,-1574,-3403,387,281,-25
1400,1,2022-09-15T20:41:04.364326,254333,-1148,-534,-19,-1772,-1578,-4092,387,281,-25
1401,1,2022-09-15T20:41:04.372987,254341,-1148,-534,-19,-1772,-1578,-4092,387,281,-25
1402,1,2022-09-15T20:41:04.379799,254349,-1148,-534,-19,-1772,-1578,-4092,387,281,-25
1403,1,2022-09-15T20:41:04.386460,254356,-1176,-575,-4,-1924,-1614,-4491,387,281,-25
1404,1,2022-09-15T20:41:04.392151,254361,-1176,-575,-4,-1924,-1614,-4491,387,281,-25
1405,1,2022-09-15T20:41:04.399650,254368,-1176,-575,-4,-1924,-1614,-4491,387,281,-25
1406,1,2022-09-15T20:41:04.410223,254380,-1208,-691,52,-1743,-1379,-3615,387,281,-25
1407,1,2022-09-15T20:41:04.417796,254388,-1208,-691,52,-1743,-1379,-3615,387,281,-25
1408,1,2022-09-15T20:41:04.429056,254398,-1142,-721,72,-1365,-1373,-2087,387,281,-25
1409,1,2022-09-15T20:41:04.436339,254405,-1142,-721,72,-1365,-1373,-2087,387,281,-25
1410,1,2022-09-15T20:41:04.443820,254412,-1121,-725,75,-1251,-1115,-1499,384,270,-28
1411,1,2022-09-15T20:41:04.452703,254422,-1121,-725,75,-1251,-1115,-1499,384,270,-28
1412,1,2022-09-15T20:41:04.458639,254428,-1121,-725,75,-1251,-1115,-1499,384,270,-28
1413,1,2022-09-15T20:41:04.467229,254437,-1132,-701,63,-1008,-1329,-1190,384,270,-28
1414,1,2022-09-15T20:41:04.480074,254449,-1132,-701,63,-1008,-1329,-1190,384,270,-28
1415,1,2022-09-15T20:41:04.487770,254456,-1123,-644,76,-859,-1703,-1200,384,270,-28
1416,1,2022-09-15T20:41:04.496050,254465,-1123,-644,76,-859,-1703,-1200,384,270,-28
1417,1,2022-09-15T20:41:04.506174,254476,-983,-692,118,-854,-1980,-584,384,270,-28
1418,1,2022-09-15T20:41:04.513163,254482,-983,-692,118,-854,-1980,-584,384,270,-28
1419,1,2022-09-15T20:41:04.519170,254488,-983,-692,118,-854,-1980,-584,384,270,-28
1420,1,2022-09-15T20:41:04.531366,254500,-913,-725,125,-1122,-1403,-219,384,270,-28
1421,1,2022-09-15T20:41:04.538560,254509,-913,-725,125,-1122,-1403,-219,384,270,-28
1422,1,2022-09-15T20:41:04.547129,254516,-919,-679,101,-1448,-461,66,384,270,-28
1423,1,2022-09-15T20:41:04.558568,254528,-919,-679,101,-1448,-461,66,384,270,-28
1424,1,2022-09-15T20:41:04.566990,254536,-983,-633,97,-1625,368,102,384,270,-28
1425,1,2022-09-15T20:41:04.577008,254546,-983,-633,97,-1625,368,102,384,270,-28
1426,1,2022-09-15T20:41:04.585731,254555,-1072,-618,96,-1536,755,39,391,265,-21
1427,1,2022-09-15T20:41:04.592015,254562,-1072,-618,96,-1536,755,39,391,265,-21
1428,1,2022-09-15T20:41:04.598962,254568,-1072,-618,96,-1536,755,39,391,265,-21
1429,1,2022-09-15T20:41:04.608408,254578,-1086,-659,85,-1271,539,29,391,265,-21
1430,1,2022-09-15T20:41:04.614633,254584,-1086,-659,85,-1271,539,29,391,265,-21
1431,1,2022-09-15T20:41:04.620706,254589,-1086,-659,85,-1271,539,29,391,265,-21
1432,1,2022-09-15T20:41:04.631396,254601,-1016,-726,67,-938,169,334,391,265,-21
1433,1,2022-09-15T20:41:04.638227,254608,-1016,-726,67,-938,169,334,391,265,-21
1434,1,2022-09-15T20:41:04.646884,254614,-1010,-655,84,-709,394,371,391,265,-21
1435,1,2022-09-15T20:41:04.656405,254625,-1010,-655,84,-709,394,371,391,265,-21
1436,1,2022-09-15T20:41:04.663654,254633,-1093,-611,75,-574,790,131,391,265,-21
1437,1,2022-09-15T20:41:04.671463,254640,-1093,-611,75,-574,790,131,391,265,-21
1438,1,2022-09-15T20:41:04.681925,254651,-988,-449,111,-508,941,895,391,265,-21
1439,1,2022-09-15T20:41:04.689236,254658,-988,-449,111,-508,941,895,391,265,-21
