,imu,server_time,arduino_time,ax,ay,az,gx,gy,gz,mx,my,mz
0,2,2022-09-15T20:40:54.276039,244243,-5302,1299,-465,-1961,568,-59,-20,348,-158
1,2,2022-09-15T20:40:54.393091,244361,-5313,1301,-470,-2485,1144,282,-24,348,-156
2,2,2022-09-15T20:40:54.403008,244371,-5313,1301,-470,-2485,1144,282,-24,348,-156
3,2,2022-09-15T20:40:54.411949,244378,-5315,1301,-476,-2475,1106,247,-24,348,-156
4,2,2022-09-15T20:40:54.420593,244388,-5315,1301,-476,-2475,1106,247,-24,348,-156
5,2,2022-09-15T20:40:54.429773,244397,-5315,1301,-476,-2475,1106,247,-24,348,-156
6,2,2022-09-15T20:40:54.438064,244406,-5321,1301,-479,-2521,1138,12,-24,348,-156
7,2,2022-09-15T20:40:54.445296,244412,-5321,1301,-479,-2521,1138,12,-24,348,-156
8,2,2022-09-15T20:40:54.485431,244450,-5330,1290,-470,-2868,1272,-631,-24,348,-156
9,2,2022-09-15T20:40:54.501864,244467,-5323,1273,-476,-3062,1274,-705,-24,348,-156
10,2,2022-09-15T20:40:54.509225,244476,-5323,1273,-476,-3062,1274,-705,-24,348,-156
11,2,2022-09-15T20:40:54.518797,244486,-5314,1257,-472,-3224,1308,-669,-23,357,-151
12,2,2022-09-15T20:40:54.527450,244493,-5314,1257,-472,-3224,1308,-669,-23,357,-151
13,2,2022-09-15T20:40:54.537988,244505,-5315,1255,-469,-3336,1397,-643,-23,357,-151
14,2,2022-09-15T20:40:54.545307,244513,-5315,1255,-469,-3336,1397,-643,-23,357,-151
15,2,2022-09-15T20:40:54.555518,244523,-5324,1252,-472,-3405,1450,-581,-23,357,-151
16,2,2022-09-15T20:40:54.562650,244530,-5324,1252,-472,-3405,1450,-581,-23,357,-151
17,2,2022-09-15T20:40:54.571356,244539,-5315,1254,-474,-3429,1421,-433,-23,357,-151
18,2,2022-09-15T20:40:54.577073,244545,-5315,1254,-474,-3429,1421,-433,-23,357,-151
19,2,2022-09-15T20:40:54.583861,244551,-5315,1254,-474,-3429,1421,-433,-23,357,-151
20,2,2022-09-15T20:40:54.589820,244558,-5311,1245,-473,-3392,1352,-212,-23,357,-151
21,2,2022-09-15T20:40:54.598859,244567,-5311,1245,-473,-3392,1352,-212,-23,357,-151
22,2,2022-09-15T20:40:54.606823,244575,-5311,1245,-473,-3392,1352,-212,-23,357,-151
23,2,2022-09-15T20:40:54.615346,244583,-5309,1242,-472,-3304,1327,-42,-23,357,-151
24,2,2022-09-15T20:40:54.623129,244591,-5309,1242,-472,-3304,1327,-42,-23,357,-151
25,2,2022-09-15T20:40:54.631046,244599,-5324,1245,-465,-3200,1337,16,-24,348,-140
26,2,2022-09-15T20:40:54.639481,244608,-5324,1245,-465,-3200,1337,16,-24,348,-140
27,2,2022-09-15T20:40:54.646522,244614,-5324,1245,-465,-3200,1337,16,-24,348,-140
28,2,2022-09-15T20:40:54.655028,244623,-5327,1253,-467,-3136,1372,-69,-24,348,-140
29,2,2022-09-15T20:40:54.661480,244630,-5327,1253,-467,-3136,1372,-69,-24,348,-140
30,2,2022-09-15T20:40:54.669538,244637,-5327,1253,-467,-3136,1372,-69,-24,348,-140
31,2,2022-09-15T20:40:54.677478,244645,-5329,1262,-466,-3106,1409,-182,-24,348,-140
32,2,2022-09-15T20:40:54.683598,244652,-5329,1262,-466,-3106,1409,-182,-24,348,-140
33,2,2022-09-15T20:40:54.690291,244658,-5334,1255,-463,-3118,1380,-264,-24,348,-140
34,2,2022-09-15T20:40:54.698840,244667,-5334,1255,-463,-3118,1380,-264,-24,348,-140
35,2,2022-09-15T20:40:54.706435,244674,-5334,1255,-463,-3118,1380,-264,-24,348,-140
36,2,2022-09-15T20:40:54.712860,244680,-5332,1266,-475,-3149,1352,-363,-24,348,-140
37,2,2022-09-15T20:40:54.721131,244689,-5332,1266,-475,-3149,1352,-363,-24,348,-140
38,2,2022-09-15T20:40:54.727311,244696,-5332,1266,-475,-3149,1352,-363,-24,348,-140
39,2,2022-09-15T20:40:54.734488,244703,-5326,1267,-470,-3204,1348,-417,-24,348,-140
40,2,2022-09-15T20:40:54.741537,244709,-5326,1267,-470,-3204,1348,-417,-24,348,-140
41,2,2022-09-15T20:40:54.749920,244717,-5326,1267,-470,-3204,1348,-417,-24,348,-140
42,2,2022-09-15T20:40:54.757477,244725,-5325,1258,-460,-3264,1368,-402,-31,357,-139
43,2,2022-09-15T20:40:54.765584,244733,-5325,1258,-460,-3264,1368,-402,-31,357,-139
44,2,2022-09-15T20:40:54.772550,244741,-5313,1245,-469,-3300,1343,-317,-31,357,-139
45,2,2022-09-15T20:40:54.780439,244748,-5313,1245,-469,-3300,1343,-317,-31,357,-139
46,2,2022-09-15T20:40:54.788144,244756,-5313,1245,-469,-3300,1343,-317,-31,357,-139
47,2,2022-09-15T20:40:54.796167,244763,-5312,1233,-484,-3280,1378,-279,-31,357,-139
48,2,2022-09-15T20:40:54.803344,244771,-5312,1233,-484,-3280,1378,-279,-31,357,-139
49,2,2022-09-15T20:40:54.812039,244781,-5317,1257,-469,-3272,1488,-253,-31,357,-139
50,2,2022-09-15T20:40:54.820852,244788,-5317,1257,-469,-3272,1488,-253,-31,357,-139
51,2,2022-09-15T20:40:54.830744,244798,-5346,1250,-477,-3315,1471,-70,-31,357,-139
52,2,2022-09-15T20:40:54.839312,244807,-5346,1250,-477,-3315,1471,-70,-31,357,-139
53,2,2022-09-15T20:40:54.848506,244815,-5346,1250,-477,-3315,1471,-70,-31,357,-139
54,2,2022-09-15T20:40:54.856889,244826,-5321,1243,-486,-3405,1364,4,-31,357,-139
55,2,2022-09-15T20:40:54.864016,244832,-5321,1243,-486,-3405,1364,4,-31,357,-139
56,2,2022-09-15T20:40:54.871759,244840,-5330,1242,-481,-3390,1391,118,-26,342,-138
57,2,2022-09-15T20:40:54.880858,244849,-5330,1242,-481,-3390,1391,118,-26,342,-138
58,2,2022-09-15T20:40:54.890365,244858,-5335,1223,-481,-3362,1436,187,-26,342,-138
59,2,2022-09-15T20:40:54.899942,244868,-5335,1223,-481,-3362,1436,187,-26,342,-138
60,2,2022-09-15T20:40:54.908352,244877,-5335,1223,-481,-3362,1436,187,-26,342,-138
61,2,2022-09-15T20:40:54.916650,244884,-5346,1221,-480,-3287,1454,40,-26,342,-138
62,2,2022-09-15T20:40:54.944443,244893,-5346,1221,-480,-3287,1454,40,-26,342,-138
63,2,2022-09-15T20:40:54.952243,244921,-5345,1230,-498,-3112,1428,-431,-26,342,-138
64,2,2022-09-15T20:40:54.957681,244926,-5345,1230,-498,-3112,1428,-431,-26,342,-138
65,2,2022-09-15T20:40:54.963904,244932,-5345,1230,-498,-3112,1428,-431,-26,342,-138
66,2,2022-09-15T20:40:54.970171,244938,-5356,1223,-499,-2987,1362,-565,-26,342,-138
67,2,2022-09-15T20:40:54.978537,244946,-5356,1223,-499,-2987,1362,-565,-26,342,-138
68,2,2022-09-15T20:40:54.986509,244955,-5356,1223,-499,-2987,1362,-565,-26,342,-138
69,2,2022-09-15T20:40:54.995592,244964,-5372,1246,-482,-2988,1255,-842,-31,353,-143
70,2,2022-09-15T20:40:55.002044,244970,-5372,1246,-482,-2988,1255,-842,-31,353,-143
71,2,2022-09-15T20:40:55.009755,244979,-5372,1264,-466,-3299,1157,-1323,-31,353,-143
72,2,2022-09-15T20:40:55.017442,244985,-5372,1264,-466,-3299,1157,-1323,-31,353,-143
73,2,2022-09-15T20:40:55.025162,244993,-5372,1264,-466,-3299,1157,-1323,-31,353,-143
74,2,2022-09-15T20:40:55.034008,245003,-5337,1280,-478,-3732,1129,-1585,-31,353,-143
75,2,2022-09-15T20:40:55.042310,245010,-5337,1280,-478,-3732,1129,-1585,-31,353,-143
76,2,2022-09-15T20:40:55.049291,245017,-5337,1280,-478,-3732,1129,-1585,-31,353,-143
77,2,2022-09-15T20:40:55.057327,245025,-5323,1254,-477,-4120,1169,-1372,-31,353,-143
78,2,2022-09-15T20:40:55.063927,245031,-5323,1254,-477,-4120,1169,-1372,-31,353,-143
79,2,2022-09-15T20:40:55.073560,245041,-5312,1222,-474,-4341,1157,-938,-31,353,-143
80,2,2022-09-15T20:40:55.130616,245099,-5337,1112,-486,-3706,896,653,-26,346,-138
81,2,2022-09-15T20:40:55.139366,245108,-5337,1112,-486,-3706,896,653,-26,346,-138
82,2,2022-09-15T20:40:55.148779,245116,-5337,1112,-486,-3706,896,653,-26,346,-138
83,2,2022-09-15T20:40:55.155916,245125,-5347,1110,-479,-3205,949,687,-26,346,-138
84,2,2022-09-15T20:40:55.162251,245131,-5347,1110,-479,-3205,949,687,-26,346,-138
85,2,2022-09-15T20:40:55.168657,245137,-5347,1110,-479,-3205,949,687,-26,346,-138
86,2,2022-09-15T20:40:55.177053,245146,-5374,1145,-468,-2709,994,400,-26,346,-138
87,2,2022-09-15T20:40:55.183031,245151,-5374,1145,-468,-2709,994,400,-26,346,-138
88,2,2022-09-15T20:40:55.188398,245157,-5374,1145,-468,-2709,994,400,-26,346,-138
89,2,2022-09-15T20:40:55.194775,245163,-5375,1185,-468,-2354,969,49,-26,346,-138
90,2,2022-09-15T20:40:55.201341,245170,-5375,1185,-468,-2354,969,49,-26,346,-138
91,2,2022-09-15T20:40:55.207582,245176,-5375,1185,-468,-2354,969,49,-26,346,-138
92,2,2022-09-15T20:40:55.215761,245184,-5367,1201,-469,-2182,887,-176,-26,346,-138
93,2,2022-09-15T20:40:55.223429,245191,-5367,1201,-469,-2182,887,-176,-26,346,-138
94,2,2022-09-15T20:40:55.231101,245199,-5349,1208,-461,-2114,795,-224,-26,346,-138
95,2,2022-09-15T20:40:55.238502,245208,-5349,1208,-461,-2114,795,-224,-26,346,-138
96,2,2022-09-15T20:40:55.245641,245214,-5349,1208,-461,-2114,795,-224,-26,346,-138
97,2,2022-09-15T20:40:55.269455,245222,-5344,1204,-461,-2064,731,-117,-25,347,-139
98,2,2022-09-15T20:40:55.275660,245243,-5339,1197,-462,-2034,716,17,-25,347,-139
99,2,2022-09-15T20:40:55.287507,245256,-5339,1197,-462,-2034,716,17,-25,347,-139
100,2,2022-09-15T20:40:55.294191,245262,-5345,1198,-459,-2000,736,26,-25,347,-139
101,2,2022-09-15T20:40:55.300515,245269,-5345,1198,-459,-2000,736,26,-25,347,-139
102,2,2022-09-15T20:40:55.306634,245275,-5345,1198,-459,-2000,736,26,-25,347,-139
103,2,2022-09-15T20:40:55.313509,245282,-5345,1198,-459,-2000,736,26,-25,347,-139
104,2,2022-09-15T20:40:55.319763,245287,-5345,1198,-459,-2000,736,26,-25,347,-139
105,2,2022-09-15T20:40:55.326418,245295,-5345,1198,-459,-2000,736,26,-25,347,-139
106,2,2022-09-15T20:40:55.332586,245301,-5331,1191,-471,-1873,826,15,-25,347,-139
107,2,2022-09-15T20:40:55.338137,245307,-5331,1191,-471,-1873,826,15,-25,347,-139
108,2,2022-09-15T20:40:55.344503,245312,-5331,1191,-471,-1873,826,15,-25,347,-139
109,2,2022-09-15T20:40:55.351190,245319,-5343,1198,-469,-1763,851,152,-25,347,-139
110,2,2022-09-15T20:40:55.358694,245327,-5343,1198,-469,-1763,851,152,-25,347,-139
111,2,2022-09-15T20:40:55.366517,245335,-5343,1198,-469,-1763,851,152,-25,347,-139
112,2,2022-09-15T20:40:55.372820,245342,-5353,1210,-462,-1695,813,236,-26,342,-132
113,2,2022-09-15T20:40:55.378373,245347,-5353,1210,-462,-1695,813,236,-26,342,-132
114,2,2022-09-15T20:40:55.383895,245352,-5353,1210,-462,-1695,813,236,-26,342,-132
115,2,2022-09-15T20:40:55.389679,245358,-5359,1221,-463,-1711,737,166,-26,342,-132
116,2,2022-09-15T20:40:55.396529,245364,-5359,1221,-463,-1711,737,166,-26,342,-132
117,2,2022-09-15T20:40:55.402282,245371,-5359,1221,-463,-1711,737,166,-26,342,-132
118,2,2022-09-15T20:40:55.408535,245378,-5359,1221,-463,-1711,737,166,-26,342,-132
119,2,2022-09-15T20:40:55.421945,245391,-5351,1216,-470,-1750,640,17,-26,342,-132
120,2,2022-09-15T20:40:55.427499,245396,-5351,1216,-470,-1750,640,17,-26,342,-132
121,2,2022-09-15T20:40:55.433817,245403,-5346,1221,-472,-1777,619,-104,-26,342,-132
122,2,2022-09-15T20:40:55.439324,245408,-5346,1221,-472,-1777,619,-104,-26,342,-132
123,2,2022-09-15T20:40:55.447069,245415,-5346,1221,-472,-1777,619,-104,-26,342,-132
124,2,2022-09-15T20:40:55.452649,245422,-5382,1219,-471,-1848,651,-210,-26,342,-132
125,2,2022-09-15T20:40:55.458427,245427,-5382,1219,-471,-1848,651,-210,-26,342,-132
126,2,2022-09-15T20:40:55.465048,245434,-5382,1219,-471,-1848,651,-210,-26,342,-132
127,2,2022-09-15T20:40:55.473148,245441,-5374,1209,-462,-1918,519,-424,-26,342,-132
128,2,2022-09-15T20:40:55.478494,245447,-5374,1209,-462,-1918,519,-424,-26,342,-132
129,2,2022-09-15T20:40:55.483661,245452,-5374,1209,-462,-1918,519,-424,-26,342,-132
130,2,2022-09-15T20:40:55.489222,245457,-5374,1209,-462,-1918,519,-424,-26,342,-132
131,2,2022-09-15T20:40:55.495178,245464,-5365,1206,-463,-1905,356,-619,-29,343,-129
132,2,2022-09-15T20:40:55.501233,245470,-5365,1206,-463,-1905,356,-619,-29,343,-129
133,2,2022-09-15T20:40:55.506478,245475,-5365,1206,-463,-1905,356,-619,-29,343,-129
134,2,2022-09-15T20:40:55.512449,245482,-5355,1204,-462,-1831,321,-733,-29,343,-129
135,2,2022-09-15T20:40:55.518799,245486,-5355,1204,-462,-1831,321,-733,-29,343,-129
136,2,2022-09-15T20:40:55.524648,245493,-5355,1204,-462,-1831,321,-733,-29,343,-129
137,2,2022-09-15T20:40:55.530021,245499,-5339,1203,-454,-1684,354,-717,-29,343,-129
138,2,2022-09-15T20:40:55.537388,245506,-5339,1203,-454,-1684,354,-717,-29,343,-129
139,2,2022-09-15T20:40:55.543182,245512,-5339,1203,-454,-1684,354,-717,-29,343,-129
140,2,2022-09-15T20:40:55.550316,245519,-5346,1199,-454,-1534,275,-590,-29,343,-129
141,2,2022-09-15T20:40:55.555907,245524,-5346,1199,-454,-1534,275,-590,-29,343,-129
142,2,2022-09-15T20:40:55.561573,245530,-5346,1199,-454,-1534,275,-590,-29,343,-129
143,2,2022-09-15T20:40:55.567804,245536,-5346,1199,-454,-1534,275,-590,-29,343,-129
144,2,2022-09-15T20:40:55.575047,245543,-5343,1190,-455,-1420,193,-521,-29,343,-129
145,2,2022-09-15T20:40:55.580638,245550,-5343,1190,-455,-1420,193,-521,-29,343,-129
146,2,2022-09-15T20:40:55.586657,245555,-5343,1190,-455,-1420,193,-521,-29,343,-129
147,2,2022-09-15T20:40:55.594835,245563,-5343,1187,-461,-1331,228,-639,-29,343,-129
148,2,2022-09-15T20:40:55.601121,245570,-5343,1187,-461,-1331,228,-639,-29,343,-129
149,2,2022-09-15T20:40:55.607998,245577,-5343,1187,-461,-1331,228,-639,-29,343,-129
150,2,2022-09-15T20:40:55.614857,245583,-5347,1182,-459,-1268,271,-730,-27,349,-137
151,2,2022-09-15T20:40:55.622016,245590,-5347,1182,-459,-1268,271,-730,-27,349,-137
152,2,2022-09-15T20:40:55.627707,245597,-5347,1182,-459,-1268,271,-730,-27,349,-137
153,2,2022-09-15T20:40:55.635004,245603,-5364,1179,-450,-1202,225,-671,-27,349,-137
154,2,2022-09-15T20:40:55.643709,245609,-5364,1179,-450,-1202,225,-671,-27,349,-137
155,2,2022-09-15T20:40:55.650052,245618,-5364,1179,-450,-1202,225,-671,-27,349,-137
156,2,2022-09-15T20:40:55.657644,245626,-5347,1181,-453,-1120,113,-498,-27,349,-137
157,2,2022-09-15T20:40:55.663869,245632,-5347,1181,-453,-1120,113,-498,-27,349,-137
158,2,2022-09-15T20:40:55.673279,245642,-5354,1166,-451,-1042,36,-222,-27,349,-137
159,2,2022-09-15T20:40:55.678651,245647,-5354,1166,-451,-1042,36,-222,-27,349,-137
160,2,2022-09-15T20:40:55.684327,245653,-5354,1166,-451,-1042,36,-222,-27,349,-137
161,2,2022-09-15T20:40:55.690817,245659,-5371,1157,-455,-1005,50,-119,-27,349,-137
162,2,2022-09-15T20:40:55.699626,245667,-5371,1157,-455,-1005,50,-119,-27,349,-137
163,2,2022-09-15T20:40:55.705887,245673,-5371,1157,-455,-1005,50,-119,-27,349,-137
164,2,2022-09-15T20:40:55.711674,245680,-5364,1160,-450,-992,81,-187,-27,349,-137
165,2,2022-09-15T20:40:55.717971,245686,-5364,1160,-450,-992,81,-187,-27,349,-137
166,2,2022-09-15T20:40:55.724160,245692,-5364,1160,-450,-992,81,-187,-27,349,-137
167,2,2022-09-15T20:40:55.730366,245699,-5359,1163,-455,-924,67,-262,-27,349,-137
168,2,2022-09-15T20:40:55.737108,245705,-5359,1163,-455,-924,67,-262,-27,349,-137
169,2,2022-09-15T20:40:55.743989,245711,-5359,1163,-455,-924,67,-262,-27,349,-137
170,2,2022-09-15T20:40:55.751968,245721,-5357,1163,-458,-803,73,-269,-29,353,-133
171,2,2022-09-15T20:40:55.757431,245726,-5357,1163,-458,-803,73,-269,-29,353,-133
172,2,2022-09-15T20:40:55.763710,245732,-5357,1163,-458,-803,73,-269,-29,353,-133
173,2,2022-09-15T20:40:55.769997,245738,-5357,1163,-458,-803,73,-269,-29,353,-133
174,2,2022-09-15T20:40:55.778031,245746,-5357,1164,-461,-680,101,-246,-29,353,-133
175,2,2022-09-15T20:40:55.783832,245752,-5357,1164,-461,-680,101,-246,-29,353,-133
176,2,2022-09-15T20:40:55.789174,245758,-5357,1164,-461,-680,101,-246,-29,353,-133
177,2,2022-09-15T20:40:55.797839,245767,-5370,1160,-457,-551,115,-210,-29,353,-133
178,2,2022-09-15T20:40:55.803461,245772,-5370,1160,-457,-551,115,-210,-29,353,-133
179,2,2022-09-15T20:40:55.809000,245778,-5370,1160,-457,-551,115,-210,-29,353,-133
180,2,2022-09-15T20:40:55.814196,245783,-5369,1165,-467,-452,75,-243,-29,353,-133
181,2,2022-09-15T20:40:55.820159,245789,-5369,1165,-467,-452,75,-243,-29,353,-133
182,2,2022-09-15T20:40:55.826077,245795,-5369,1165,-467,-452,75,-243,-29,353,-133
183,2,2022-09-15T20:40:55.831113,245800,-5372,1166,-464,-370,9,-301,-29,353,-133
184,2,2022-09-15T20:40:55.837103,245806,-5372,1166,-464,-370,9,-301,-29,353,-133
185,2,2022-09-15T20:40:55.843452,245811,-5372,1166,-464,-370,9,-301,-29,353,-133
186,2,2022-09-15T20:40:55.848700,245818,-5372,1166,-464,-370,9,-301,-29,353,-133
187,2,2022-09-15T20:40:55.853960,245823,-5371,1169,-469,-299,-83,-334,-29,353,-133
188,2,2022-09-15T20:40:55.859436,245828,-5371,1169,-469,-299,-83,-334,-29,353,-133
189,2,2022-09-15T20:40:55.865096,245833,-5371,1169,-469,-299,-83,-334,-29,353,-133
190,2,2022-09-15T20:40:55.870718,245839,-5355,1170,-466,-258,-161,-295,-25,351,-133
191,2,2022-09-15T20:40:55.876424,245846,-5355,1170,-466,-258,-161,-295,-25,351,-133
192,2,2022-09-15T20:40:55.881679,245851,-5355,1170,-466,-258,-161,-295,-25,351,-133
193,2,2022-09-15T20:40:55.887135,245856,-5355,1170,-466,-258,-161,-295,-25,351,-133
194,2,2022-09-15T20:40:55.893442,245862,-5359,1167,-465,-209,-210,-141,-25,351,-133
195,2,2022-09-15T20:40:55.899174,245868,-5359,1167,-465,-209,-210,-141,-25,351,-133
196,2,2022-09-15T20:40:55.904736,245873,-5359,1167,-465,-209,-210,-141,-25,351,-133
197,2,2022-09-15T20:40:55.910213,245879,-5341,1161,-462,-162,-260,12,-25,351,-133
198,2,2022-09-15T20:40:55.917747,245885,-5341,1161,-462,-162,-260,12,-25,351,-133
199,2,2022-09-15T20:40:55.923420,245893,-5341,1161,-462,-162,-260,12,-25,351,-133
200,2,2022-09-15T20:40:55.928545,245898,-5341,1161,-462,-162,-260,12,-25,351,-133
201,2,2022-09-15T20:40:55.933829,245903,-5352,1162,-463,-88,-279,148,-25,351,-133
202,2,2022-09-15T20:40:55.939642,245908,-5352,1162,-463,-88,-279,148,-25,351,-133
203,2,2022-09-15T20:40:55.947841,245916,-5352,1162,-463,-88,-279,148,-25,351,-133
204,2,2022-09-15T20:40:55.953117,245922,-5360,1170,-463,-25,-279,214,-25,351,-133
205,2,2022-09-15T20:40:55.958456,245927,-5360,1170,-463,-25,-279,214,-25,351,-133
206,2,2022-09-15T20:40:55.964298,245933,-5360,1170,-463,-25,-279,214,-25,351,-133
207,2,2022-09-15T20:40:55.970349,245939,-5351,1176,-469,-36,-240,265,-25,351,-133
208,2,2022-09-15T20:40:55.977253,245946,-5351,1176,-469,-36,-240,265,-25,351,-133
209,2,2022-09-15T20:40:55.982576,245952,-5351,1176,-469,-36,-240,265,-25,351,-133
210,2,2022-09-15T20:40:55.987826,245957,-5351,1176,-469,-36,-240,265,-25,351,-133
211,2,2022-09-15T20:40:55.993600,245962,-5344,1175,-469,-47,-179,350,-29,345,-129
212,2,2022-09-15T20:40:56.000412,245968,-5344,1175,-469,-47,-179,350,-29,345,-129
213,2,2022-09-15T20:40:56.006778,245975,-5344,1175,-469,-47,-179,350,-29,345,-129
214,2,2022-09-15T20:40:56.014785,245983,-5353,1167,-477,-8,-146,443,-29,345,-129
215,2,2022-09-15T20:40:56.021336,245989,-5353,1167,-477,-8,-146,443,-29,345,-129
216,2,2022-09-15T20:40:56.027682,245996,-5353,1167,-477,-8,-146,443,-29,345,-129
217,2,2022-09-15T20:40:56.033914,246002,-5355,1174,-477,33,-128,405,-29,345,-129
218,2,2022-09-15T20:40:56.039377,246008,-5355,1174,-477,33,-128,405,-29,345,-129
219,2,2022-09-15T20:40:56.045700,246013,-5355,1174,-477,33,-128,405,-29,345,-129
220,2,2022-09-15T20:40:56.050868,246020,-5352,1184,-476,47,-64,290,-29,345,-129
221,2,2022-09-15T20:40:56.058188,246027,-5352,1184,-476,47,-64,290,-29,345,-129
222,2,2022-09-15T20:40:56.063616,246033,-5352,1184,-476,47,-64,290,-29,345,-129
223,2,2022-09-15T20:40:56.072592,246040,-5354,1200,-479,12,4,164,-29,345,-129
224,2,2022-09-15T20:40:56.080464,246048,-5354,1200,-479,12,4,164,-29,345,-129
225,2,2022-09-15T20:40:56.088284,246056,-5354,1200,-479,12,4,164,-29,345,-129
226,2,2022-09-15T20:40:56.097094,246065,-5352,1195,-487,-76,59,136,-29,345,-129
227,2,2022-09-15T20:40:56.103339,246072,-5352,1195,-487,-76,59,136,-29,345,-129
228,2,2022-09-15T20:40:56.108806,246078,-5352,1195,-487,-76,59,136,-29,345,-129
229,2,2022-09-15T20:40:56.115235,246083,-5375,1200,-485,-231,130,4,-27,345,-125
230,2,2022-09-15T20:40:56.122580,246090,-5375,1200,-485,-231,130,4,-27,345,-125
231,2,2022-09-15T20:40:56.129489,246097,-5375,1200,-485,-231,130,4,-27,345,-125
232,2,2022-09-15T20:40:56.136671,246106,-5384,1208,-482,-407,192,-170,-27,345,-125
233,2,2022-09-15T20:40:56.143179,246111,-5384,1208,-482,-407,192,-170,-27,345,-125
234,2,2022-09-15T20:40:56.149323,246118,-5384,1208,-482,-407,192,-170,-27,345,-125
235,2,2022-09-15T20:40:56.154727,246124,-5358,1202,-487,-534,100,-152,-27,345,-125
236,2,2022-09-15T20:40:56.160185,246129,-5358,1202,-487,-534,100,-152,-27,345,-125
237,2,2022-09-15T20:40:56.165696,246134,-5358,1202,-487,-534,100,-152,-27,345,-125
238,2,2022-09-15T20:40:56.171995,246140,-5358,1197,-487,-575,75,-5,-27,345,-125
239,2,2022-09-15T20:40:56.177892,246147,-5358,1197,-487,-575,75,-5,-27,345,-125
240,2,2022-09-15T20:40:56.183221,246152,-5358,1197,-487,-575,75,-5,-27,345,-125
241,2,2022-09-15T20:40:56.200390,246158,-5358,1197,-487,-575,75,-5,-27,345,-125
242,2,2022-09-15T20:40:56.205550,246174,-5332,1205,-484,-578,20,65,-27,345,-125
243,2,2022-09-15T20:40:56.213107,246182,-5368,1182,-485,-573,-18,114,-27,345,-125
244,2,2022-09-15T20:40:56.219290,246188,-5368,1182,-485,-573,-18,114,-27,345,-125
245,2,2022-09-15T20:40:56.225160,246194,-5368,1182,-485,-573,-18,114,-27,345,-125
246,2,2022-09-15T20:40:56.230181,246200,-5359,1184,-483,-581,-104,-156,-22,345,-125
247,2,2022-09-15T20:40:56.237064,246206,-5359,1184,-483,-581,-104,-156,-22,352,-130
248,2,2022-09-15T20:40:56.242989,246211,-5359,1184,-483,-581,-104,-156,-22,352,-130
249,2,2022-09-15T20:40:56.248987,246217,-5359,1184,-483,-581,-104,-156,-22,352,-130
250,2,2022-09-15T20:40:56.254229,246223,-5353,1188,-481,-530,-115,-363,-22,352,-130
251,2,2022-09-15T20:40:56.259681,246228,-5353,1188,-481,-530,-115,-363,-22,352,-130
252,2,2022-09-15T20:40:56.267289,246236,-5353,1188,-481,-530,-115,-363,-22,352,-130
253,2,2022-09-15T20:40:56.274599,246244,-5341,1189,-483,-454,-107,-387,-22,352,-130
254,2,2022-09-15T20:40:56.280086,246249,-5341,1189,-483,-454,-107,-387,-22,352,-130
255,2,2022-09-15T20:40:56.285594,246254,-5341,1189,-483,-454,-107,-387,-22,352,-130
256,2,2022-09-15T20:40:56.291787,246260,-5365,1190,-479,-420,-66,-364,-22,352,-130
257,2,2022-09-15T20:40:56.299076,246267,-5365,1190,-479,-420,-66,-364,-22,352,-130
258,2,2022-09-15T20:40:56.304252,246274,-5365,1190,-479,-420,-66,-364,-22,352,-130
259,2,2022-09-15T20:40:56.309871,246279,-5365,1190,-479,-420,-66,-364,-22,352,-130
260,2,2022-09-15T20:40:56.328292,246297,-5364,1191,-475,-452,-60,-455,-22,352,-130
261,2,2022-09-15T20:40:56.333587,246302,-5348,1192,-478,-496,-50,-475,-22,352,-130
262,2,2022-09-15T20:40:56.338968,246307,-5348,1192,-478,-496,-50,-475,-22,352,-130
263,2,2022-09-15T20:40:56.345067,246313,-5348,1192,-478,-496,-50,-475,-22,352,-130
264,2,2022-09-15T20:40:56.350585,246320,-5357,1178,-479,-557,-4,-375,-22,350,-128
265,2,2022-09-15T20:40:56.357738,246326,-5357,1178,-479,-557,-4,-375,-22,350,-128
266,2,2022-09-15T20:40:56.362615,246332,-5357,1178,-479,-557,-4,-375,-22,350,-128
267,2,2022-09-15T20:40:56.368828,246337,-5357,1178,-479,-557,-4,-375,-22,350,-128
268,2,2022-09-15T20:40:56.375915,246345,-5362,1171,-477,-644,46,-289,-22,350,-128
269,2,2022-09-15T20:40:56.381319,246350,-5362,1171,-477,-644,46,-289,-22,350,-128
270,2,2022-09-15T20:40:56.386742,246355,-5362,1171,-477,-644,46,-289,-22,350,-128
271,2,2022-09-15T20:40:56.394163,246363,-5363,1166,-477,-701,89,-234,-22,350,-128
272,2,2022-09-15T20:40:56.399414,246368,-5363,1166,-477,-701,89,-234,-22,350,-128
273,2,2022-09-15T20:40:56.405170,246374,-5363,1166,-477,-701,89,-234,-22,350,-128
274,2,2022-09-15T20:40:56.410562,246379,-5363,1169,-482,-737,98,-245,-22,350,-128
275,2,2022-09-15T20:40:56.418492,246386,-5363,1169,-482,-737,98,-245,-22,350,-128
276,2,2022-09-15T20:40:56.423918,246392,-5363,1169,-482,-737,98,-245,-22,350,-128
277,2,2022-09-15T20:40:56.429646,246398,-5363,1169,-482,-737,98,-245,-22,350,-128
278,2,2022-09-15T20:40:56.436005,246405,-5362,1170,-484,-748,100,-230,-22,350,-128
279,2,2022-09-15T20:40:56.442444,246411,-5362,1170,-484,-748,100,-230,-22,350,-128
280,2,2022-09-15T20:40:56.449288,246417,-5362,1170,-484,-748,100,-230,-22,350,-128
281,2,2022-09-15T20:40:56.455680,246425,-5361,1166,-483,-737,87,-183,-22,350,-128
282,2,2022-09-15T20:40:56.461211,246430,-5361,1166,-483,-737,87,-183,-22,350,-128
283,2,2022-09-15T20:40:56.466962,246435,-5361,1166,-483,-737,87,-183,-22,350,-128
284,2,2022-09-15T20:40:56.474452,246444,-5360,1156,-484,-676,44,-111,-22,350,-128
285,2,2022-09-15T20:40:56.479840,246449,-5360,1156,-484,-676,44,-111,-22,350,-128
286,2,2022-09-15T20:40:56.485685,246455,-5360,1156,-484,-676,44,-111,-22,350,-128
287,2,2022-09-15T20:40:56.491630,246460,-5360,1156,-484,-676,44,-111,-27,349,-131
288,2,2022-09-15T20:40:56.499120,246468,-5360,1156,-484,-676,44,-111,-27,349,-131
289,2,2022-09-15T20:40:56.504536,246473,-5360,1156,-484,-676,44,-111,-27,349,-131
290,2,2022-09-15T20:40:56.509869,246478,-5360,1156,-484,-676,44,-111,-27,349,-131
291,2,2022-09-15T20:40:56.515685,246484,-5375,1174,-474,-570,-38,-187,-27,349,-131
292,2,2022-09-15T20:40:56.522388,246490,-5375,1174,-474,-570,-38,-187,-27,349,-131
293,2,2022-09-15T20:40:56.528723,246497,-5375,1174,-474,-570,-38,-187,-27,349,-131
294,2,2022-09-15T20:40:56.534178,246503,-5368,1178,-477,-559,-61,-299,-27,349,-131
295,2,2022-09-15T20:40:56.539787,246508,-5368,1178,-477,-559,-61,-299,-27,349,-131
296,2,2022-09-15T20:40:56.545854,246514,-5368,1178,-477,-559,-61,-299,-27,349,-131
297,2,2022-09-15T20:40:56.551455,246520,-5365,1170,-478,-530,-91,-305,-27,349,-131
298,2,2022-09-15T20:40:56.558123,246526,-5365,1170,-478,-530,-91,-305,-27,349,-131
299,2,2022-09-15T20:40:56.565662,246535,-5365,1170,-478,-530,-91,-305,-27,349,-131
300,2,2022-09-15T20:40:56.571324,246540,-5363,1162,-470,-463,-139,-202,-27,349,-131
301,2,2022-09-15T20:40:56.576920,246546,-5363,1162,-470,-463,-139,-202,-27,349,-131
302,2,2022-09-15T20:40:56.582315,246551,-5363,1162,-470,-463,-139,-202,-27,349,-131
303,2,2022-09-15T20:40:56.588486,246557,-5363,1162,-470,-463,-139,-202,-27,349,-131
304,2,2022-09-15T20:40:56.595931,246564,-5362,1152,-479,-363,-194,-73,-27,349,-131
305,2,2022-09-15T20:40:56.601596,246571,-5362,1152,-479,-363,-194,-73,-27,349,-131
306,2,2022-09-15T20:40:56.606761,246576,-5362,1152,-479,-363,-194,-73,-27,349,-131
307,2,2022-09-15T20:40:56.612184,246581,-5358,1157,-464,-253,-215,-5,-18,340,-130
308,2,2022-09-15T20:40:56.619498,246587,-5358,1157,-464,-253,-215,-5,-18,340,-130
309,2,2022-09-15T20:40:56.626380,246595,-5358,1157,-464,-253,-215,-5,-18,340,-130
310,2,2022-09-15T20:40:56.631686,246600,-5352,1153,-474,-156,-214,73,-18,340,-130
311,2,2022-09-15T20:40:56.637546,246605,-5352,1153,-474,-156,-214,73,-18,340,-130
312,2,2022-09-15T20:40:56.643722,246612,-5352,1153,-474,-156,-214,73,-18,340,-130
313,2,2022-09-15T20:40:56.649068,246618,-5352,1153,-474,-156,-214,73,-18,340,-130
314,2,2022-09-15T20:40:56.654525,246624,-5347,1158,-476,-63,-184,169,-18,340,-130
315,2,2022-09-15T20:40:56.660163,246629,-5347,1158,-476,-63,-184,169,-18,340,-130
316,2,2022-09-15T20:40:56.665988,246634,-5347,1158,-476,-63,-184,169,-18,340,-130
317,2,2022-09-15T20:40:56.672427,246641,-5349,1163,-473,-10,-123,264,-18,340,-130
318,2,2022-09-15T20:40:56.678055,246646,-5349,1163,-473,-10,-123,264,-18,340,-130
319,2,2022-09-15T20:40:56.684098,246653,-5349,1163,-473,-10,-123,264,-18,340,-130
320,2,2022-09-15T20:40:56.689934,246659,-5349,1163,-473,-10,-123,264,-18,340,-130
321,2,2022-09-15T20:40:56.696895,246666,-5352,1182,-476,-38,-65,256,-18,340,-130
322,2,2022-09-15T20:40:56.702719,246671,-5352,1182,-476,-38,-65,256,-18,340,-130
323,2,2022-09-15T20:40:56.708174,246677,-5352,1182,-476,-38,-65,256,-18,340,-130
324,2,2022-09-15T20:40:56.713733,246682,-5352,1189,-478,-133,-23,234,-18,340,-130
325,2,2022-09-15T20:40:56.720386,246688,-5352,1189,-478,-133,-23,234,-18,340,-130
326,2,2022-09-15T20:40:56.726151,246694,-5352,1189,-478,-133,-23,234,-18,340,-130
327,2,2022-09-15T20:40:56.731221,246701,-5354,1186,-472,-239,-11,244,-21,349,-129
328,2,2022-09-15T20:40:56.738444,246707,-5354,1186,-472,-239,-11,244,-21,349,-129
329,2,2022-09-15T20:40:56.744312,246713,-5354,1186,-472,-239,-11,244,-21,349,-129
330,2,2022-09-15T20:40:56.749923,246719,-5354,1186,-472,-239,-11,244,-21,349,-129
331,2,2022-09-15T20:40:56.755013,246724,-5370,1182,-476,-289,-12,256,-21,349,-129
332,2,2022-09-15T20:40:56.760458,246729,-5370,1182,-476,-289,-12,256,-21,349,-129
333,2,2022-09-15T20:40:56.767359,246735,-5370,1182,-476,-289,-12,256,-21,349,-129
334,2,2022-09-15T20:40:56.774406,246744,-5352,1184,-483,-298,-6,207,-21,349,-129
335,2,2022-09-15T20:40:56.779791,246749,-5352,1184,-483,-298,-6,207,-21,349,-129
336,2,2022-09-15T20:40:56.785063,246754,-5352,1184,-483,-298,-6,207,-21,349,-129
337,2,2022-09-15T20:40:56.790420,246759,-5352,1184,-483,-298,-6,207,-21,349,-129
338,2,2022-09-15T20:40:56.796597,246765,-5364,1182,-484,-276,26,194,-21,349,-129
339,2,2022-09-15T20:40:56.802172,246771,-5364,1182,-484,-276,26,194,-21,349,-129
340,2,2022-09-15T20:40:56.807801,246776,-5364,1182,-484,-276,26,194,-21,349,-129
341,2,2022-09-15T20:40:56.814256,246784,-5366,1184,-492,-245,36,112,-21,349,-129
342,2,2022-09-15T20:40:56.821737,246790,-5366,1184,-492,-245,36,112,-21,349,-129
343,2,2022-09-15T20:40:56.827130,246796,-5366,1184,-492,-245,36,112,-21,349,-129
344,2,2022-09-15T20:40:56.834356,246803,-5360,1195,-490,-234,77,-13,-21,349,-129
345,2,2022-09-15T20:40:56.840472,246809,-5360,1195,-490,-234,77,-13,-21,349,-129
346,2,2022-09-15T20:40:56.847433,246815,-5360,1195,-490,-234,77,-13,-21,349,-129
347,2,2022-09-15T20:40:56.853261,246821,-5375,1190,-484,-252,85,-88,-25,353,-125
348,2,2022-09-15T20:40:56.859584,246828,-5375,1190,-484,-252,85,-88,-25,353,-125
349,2,2022-09-15T20:40:56.865873,246834,-5375,1190,-484,-252,85,-88,-25,353,-125
350,2,2022-09-15T20:40:56.872198,246841,-5361,1189,-487,-239,-20,-88,-25,353,-125
351,2,2022-09-15T20:40:56.878017,246846,-5361,1189,-487,-239,-20,-88,-25,353,-125
352,2,2022-09-15T20:40:56.883679,246852,-5361,1189,-487,-239,-20,-88,-25,353,-125
353,2,2022-09-15T20:40:56.890518,246859,-5361,1189,-487,-239,-20,-88,-25,353,-125
354,2,2022-09-15T20:40:56.896874,246864,-5347,1183,-486,-160,-127,-1,-25,353,-125
355,2,2022-09-15T20:40:56.902732,246872,-5347,1183,-486,-160,-127,-1,-25,353,-125
356,2,2022-09-15T20:40:56.908174,246877,-5347,1183,-486,-160,-127,-1,-25,353,-125
357,2,2022-09-15T20:40:56.913936,246882,-5350,1190,-494,-111,-159,2,-25,353,-125
358,2,2022-09-15T20:40:56.920393,246888,-5350,1190,-494,-111,-159,2,-25,353,-125
359,2,2022-09-15T20:40:56.926591,246895,-5350,1190,-494,-111,-159,2,-25,353,-125
360,2,2022-09-15T20:40:56.932194,246901,-5364,1186,-492,-72,-161,-70,-25,353,-125
361,2,2022-09-15T20:40:56.937721,246906,-5364,1186,-492,-72,-161,-70,-25,353,-125
362,2,2022-09-15T20:40:56.944178,246913,-5364,1186,-492,-72,-161,-70,-25,353,-125
363,2,2022-09-15T20:40:56.950168,246919,-5364,1186,-492,-72,-161,-70,-25,353,-125
364,2,2022-09-15T20:40:56.956932,246926,-5351,1186,-491,-33,-186,-153,-25,353,-125
365,2,2022-09-15T20:40:56.962624,246931,-5351,1186,-491,-33,-186,-153,-25,353,-125
366,2,2022-09-15T20:40:56.968873,246937,-5351,1186,-491,-33,-186,-153,-25,353,-125
367,2,2022-09-15T20:40:56.974240,246943,-5346,1190,-493,11,-172,-208,-33,349,-133
368,2,2022-09-15T20:40:56.979729,246948,-5346,1190,-493,11,-172,-208,-33,349,-133
369,2,2022-09-15T20:40:56.985489,246955,-5346,1190,-493,11,-172,-208,-33,349,-133
370,2,2022-09-15T20:40:56.991056,246960,-5346,1190,-493,11,-172,-208,-33,349,-133
371,2,2022-09-15T20:40:56.997393,246966,-5347,1195,-491,1,-56,-229,-33,349,-133
372,2,2022-09-15T20:40:57.002880,246972,-5347,1195,-491,1,-56,-229,-33,349,-133
373,2,2022-09-15T20:40:57.008185,246977,-5347,1195,-491,1,-56,-229,-33,349,-133
374,2,2022-09-15T20:40:57.013703,246982,-5353,1194,-496,-35,33,-161,-33,349,-133
375,2,2022-09-15T20:40:57.020439,246988,-5353,1194,-496,-35,33,-161,-33,349,-133
376,2,2022-09-15T20:40:57.025907,246994,-5353,1194,-496,-35,33,-161,-33,349,-133
377,2,2022-09-15T20:40:57.031115,247001,-5353,1194,-496,-35,33,-161,-33,349,-133
378,2,2022-09-15T20:40:57.037279,247007,-5353,1194,-496,-35,33,-161,-33,349,-133
379,2,2022-09-15T20:40:57.044396,247012,-5353,1194,-496,-35,33,-161,-33,349,-133
380,2,2022-09-15T20:40:57.050344,247019,-5353,1194,-496,-35,33,-161,-33,349,-133
381,2,2022-09-15T20:40:57.055666,247025,-5378,1189,-499,-106,-94,32,-33,349,-133
382,2,2022-09-15T20:40:57.061250,247030,-5378,1189,-499,-106,-94,32,-33,349,-133
383,2,2022-09-15T20:40:57.067727,247035,-5378,1189,-499,-106,-94,32,-33,349,-133
384,2,2022-09-15T20:40:57.073743,247043,-5365,1181,-498,-136,-214,13,-33,349,-133
385,2,2022-09-15T20:40:57.079431,247048,-5365,1181,-498,-136,-214,13,-33,349,-133
386,2,2022-09-15T20:40:57.085062,247054,-5365,1181,-498,-136,-214,13,-33,349,-133
387,2,2022-09-15T20:40:57.090113,247059,-5365,1181,-498,-136,-214,13,-33,349,-133
388,2,2022-09-15T20:40:57.097720,247067,-5366,1176,-500,-144,-287,-22,-33,349,-133
389,2,2022-09-15T20:40:57.103241,247072,-5366,1176,-500,-144,-287,-22,-33,349,-133
390,2,2022-09-15T20:40:57.109679,247078,-5366,1176,-500,-144,-287,-22,-33,349,-133
391,2,2022-09-15T20:40:57.115164,247085,-5374,1171,-493,-140,-377,-77,-39,349,-123
392,2,2022-09-15T20:40:57.122359,247090,-5374,1171,-493,-140,-377,-77,-39,349,-123
393,2,2022-09-15T20:40:57.129223,247098,-5374,1171,-493,-140,-377,-77,-39,349,-123
394,2,2022-09-15T20:40:57.135760,247105,-5360,1178,-491,-123,-435,-117,-39,349,-123
395,2,2022-09-15T20:40:57.141566,247110,-5360,1178,-491,-123,-435,-117,-39,349,-123
396,2,2022-09-15T20:40:57.149434,247118,-5360,1178,-491,-123,-435,-117,-39,349,-123
397,2,2022-09-15T20:40:57.156238,247126,-5354,1176,-486,-106,-400,-71,-39,349,-123
398,2,2022-09-15T20:40:57.161245,247131,-5354,1176,-486,-106,-400,-71,-39,349,-123
399,2,2022-09-15T20:40:57.202854,247172,-5351,1182,-485,11,-274,64,-39,349,-123
400,2,2022-09-15T20:40:57.208308,247177,-5351,1182,-485,11,-274,64,-39,349,-123
401,2,2022-09-15T20:40:57.214140,247183,-5352,1175,-483,130,-234,129,-39,349,-123
402,2,2022-09-15T20:40:57.220542,247188,-5352,1175,-483,130,-234,129,-39,349,-123
403,2,2022-09-15T20:40:57.228464,247197,-5352,1175,-483,130,-234,129,-39,349,-123
404,2,2022-09-15T20:40:57.234219,247203,-5350,1182,-483,209,-233,110,-34,354,-128
405,2,2022-09-15T20:40:57.240081,247208,-5350,1182,-483,209,-233,110,-34,354,-128
406,2,2022-09-15T20:40:57.247014,247215,-5350,1182,-483,209,-233,110,-34,354,-128
407,2,2022-09-15T20:40:57.252859,247222,-5345,1200,-482,197,-244,-2,-34,354,-128
408,2,2022-09-15T20:40:57.258517,247227,-5345,1200,-482,197,-244,-2,-34,354,-128
409,2,2022-09-15T20:40:57.263880,247233,-5345,1200,-482,197,-244,-2,-34,354,-128
410,2,2022-09-15T20:40:57.269952,247238,-5345,1200,-482,197,-244,-2,-34,354,-128
411,2,2022-09-15T20:40:57.277204,247246,-5352,1201,-487,117,-203,-122,-34,354,-128
412,2,2022-09-15T20:40:57.282570,247251,-5352,1201,-487,117,-203,-122,-34,354,-128
413,2,2022-09-15T20:40:57.287980,247257,-5352,1201,-487,117,-203,-122,-34,354,-128
414,2,2022-09-15T20:40:57.295763,247264,-5357,1201,-491,36,-166,-169,-34,354,-128
415,2,2022-09-15T20:40:57.301327,247270,-5357,1201,-491,36,-166,-169,-34,354,-128
416,2,2022-09-15T20:40:57.306713,247276,-5357,1201,-491,36,-166,-169,-34,354,-128
417,2,2022-09-15T20:40:57.311934,247281,-5356,1195,-491,-12,-175,-154,-34,354,-128
418,2,2022-09-15T20:40:57.317796,247286,-5356,1195,-491,-12,-175,-154,-34,354,-128
419,2,2022-09-15T20:40:57.323259,247292,-5356,1195,-491,-12,-175,-154,-34,354,-128
420,2,2022-09-15T20:40:57.328742,247298,-5356,1195,-491,-12,-175,-154,-34,354,-128
421,2,2022-09-15T20:40:57.334504,247303,-5356,1190,-491,-45,-205,-104,-34,354,-128
422,2,2022-09-15T20:40:57.340170,247309,-5356,1190,-491,-45,-205,-104,-34,354,-128
423,2,2022-09-15T20:40:57.348590,247317,-5356,1190,-491,-45,-205,-104,-34,354,-128
424,2,2022-09-15T20:40:57.354273,247323,-5361,1197,-492,-68,-228,-34,-25,343,-133
425,2,2022-09-15T20:40:57.360073,247328,-5361,1197,-492,-68,-228,-34,-25,343,-133
426,2,2022-09-15T20:40:57.366181,247334,-5361,1197,-492,-68,-228,-34,-25,343,-133
427,2,2022-09-15T20:40:57.372147,247341,-5350,1203,-490,-83,-238,34,-25,343,-133
428,2,2022-09-15T20:40:57.379154,247348,-5350,1203,-490,-83,-238,34,-25,343,-133
429,2,2022-09-15T20:40:57.385416,247355,-5350,1203,-490,-83,-238,34,-25,343,-133
430,2,2022-09-15T20:40:57.390799,247360,-5350,1203,-490,-83,-238,34,-25,343,-133
431,2,2022-09-15T20:40:57.396824,247365,-5351,1200,-487,-76,-229,98,-25,343,-133
432,2,2022-09-15T20:40:57.402831,247371,-5351,1200,-487,-76,-229,98,-25,343,-133
433,2,2022-09-15T20:40:57.408557,247377,-5351,1200,-487,-76,-229,98,-25,343,-133
434,2,2022-09-15T20:40:57.414790,247384,-5347,1204,-494,-54,-235,110,-25,343,-133
435,2,2022-09-15T20:40:57.421863,247390,-5347,1204,-494,-54,-235,110,-25,343,-133
436,2,2022-09-15T20:40:57.427517,247396,-5347,1204,-494,-54,-235,110,-25,343,-133
437,2,2022-09-15T20:40:57.434592,247403,-5358,1210,-493,-71,-242,74,-25,343,-133
438,2,2022-09-15T20:40:57.440698,247409,-5358,1210,-493,-71,-242,74,-25,343,-133
439,2,2022-09-15T20:40:57.448851,247417,-5358,1210,-493,-71,-242,74,-25,343,-133
440,2,2022-09-15T20:40:57.454133,247424,-5351,1205,-492,-129,-275,7,-25,343,-133
441,2,2022-09-15T20:40:57.460323,247429,-5351,1205,-492,-129,-275,7,-25,343,-133
442,2,2022-09-15T20:40:57.466348,247435,-5351,1205,-492,-129,-275,7,-25,343,-133
443,2,2022-09-15T20:40:57.472158,247441,-5353,1193,-487,-167,-280,-20,-27,349,-129
444,2,2022-09-15T20:40:57.477957,247446,-5353,1193,-487,-167,-280,-20,-27,349,-129
445,2,2022-09-15T20:40:57.483701,247452,-5353,1193,-487,-167,-280,-20,-27,349,-129
446,2,2022-09-15T20:40:57.490522,247458,-5353,1193,-487,-167,-280,-20,-27,349,-129
447,2,2022-09-15T20:40:57.496660,247465,-5362,1181,-486,-159,-287,-51,-27,349,-129
448,2,2022-09-15T20:40:57.502897,247472,-5362,1181,-486,-159,-287,-51,-27,349,-129
449,2,2022-09-15T20:40:57.508989,247478,-5362,1181,-486,-159,-287,-51,-27,349,-129
450,2,2022-09-15T20:40:57.514612,247483,-5359,1185,-487,-108,-306,-109,-27,349,-129
451,2,2022-09-15T20:40:57.521067,247489,-5359,1185,-487,-108,-306,-109,-27,349,-129
452,2,2022-09-15T20:40:57.527509,247496,-5359,1185,-487,-108,-306,-109,-27,349,-129
453,2,2022-09-15T20:40:57.532917,247501,-5354,1183,-486,-67,-301,-139,-27,349,-129
454,2,2022-09-15T20:40:57.538692,247507,-5354,1183,-486,-67,-301,-139,-27,349,-129
455,2,2022-09-15T20:40:57.547103,247516,-5354,1183,-486,-67,-301,-139,-27,349,-129
456,2,2022-09-15T20:40:57.552423,247522,-5361,1196,-486,-72,-259,-121,-27,349,-129
457,2,2022-09-15T20:40:57.558336,247527,-5361,1196,-486,-72,-259,-121,-27,349,-129
458,2,2022-09-15T20:40:57.564665,247534,-5361,1196,-486,-72,-259,-121,-27,349,-129
459,2,2022-09-15T20:40:57.570599,247539,-5361,1196,-486,-72,-259,-121,-27,349,-129
460,2,2022-09-15T20:40:57.576640,247545,-5375,1194,-483,-119,-258,-47,-27,349,-129
461,2,2022-09-15T20:40:57.582152,247550,-5375,1194,-483,-119,-258,-47,-27,349,-129
462,2,2022-09-15T20:40:57.587877,247557,-5375,1194,-483,-119,-258,-47,-27,349,-129
463,2,2022-09-15T20:40:57.595411,247563,-5367,1194,-480,-136,-330,15,-30,350,-130
464,2,2022-09-15T20:40:57.601171,247570,-5367,1194,-480,-136,-330,15,-30,350,-130
465,2,2022-09-15T20:40:57.607514,247576,-5367,1194,-480,-136,-330,15,-30,350,-130
466,2,2022-09-15T20:40:57.613377,247582,-5348,1193,-483,-113,-400,68,-30,350,-130
467,2,2022-09-15T20:40:57.619811,247587,-5348,1193,-483,-113,-400,68,-30,350,-130
468,2,2022-09-15T20:40:57.625638,247595,-5348,1193,-483,-113,-400,68,-30,350,-130
469,2,2022-09-15T20:40:57.631255,247601,-5348,1193,-483,-113,-400,68,-30,350,-130
470,2,2022-09-15T20:40:57.637926,247607,-5345,1190,-483,-89,-392,74,-30,350,-130
471,2,2022-09-15T20:40:57.644540,247612,-5345,1190,-483,-89,-392,74,-30,350,-130
472,2,2022-09-15T20:40:57.650615,247619,-5345,1190,-483,-89,-392,74,-30,350,-130
473,2,2022-09-15T20:40:57.655962,247625,-5342,1187,-480,-64,-346,37,-30,350,-130
474,2,2022-09-15T20:40:57.661304,247630,-5342,1187,-480,-64,-346,37,-30,350,-130
475,2,2022-09-15T20:40:57.667445,247635,-5342,1187,-480,-64,-346,37,-30,350,-130
476,2,2022-09-15T20:40:57.673584,247643,-5336,1192,-481,-16,-295,-2,-30,350,-130
477,2,2022-09-15T20:40:57.679059,247648,-5336,1192,-481,-16,-295,-2,-30,350,-130
478,2,2022-09-15T20:40:57.685260,247655,-5336,1192,-481,-16,-295,-2,-30,350,-130
479,2,2022-09-15T20:40:57.690763,247659,-5336,1192,-481,-16,-295,-2,-30,350,-130
480,2,2022-09-15T20:40:57.696773,247665,-5334,1194,-482,2,-228,-14,-30,350,-130
481,2,2022-09-15T20:40:57.703036,247671,-5334,1194,-482,2,-228,-14,-30,350,-130
482,2,2022-09-15T20:40:57.709487,247678,-5334,1194,-482,2,-228,-14,-30,350,-130
483,2,2022-09-15T20:40:57.714683,247684,-5336,1201,-484,15,-149,22,-30,350,-130
484,2,2022-09-15T20:40:57.721138,247689,-5336,1201,-484,15,-149,22,-30,350,-130
485,2,2022-09-15T20:40:57.726474,247696,-5336,1201,-484,15,-149,22,-30,350,-130
486,2,2022-09-15T20:40:57.731558,247701,-5345,1204,-483,6,-109,129,-30,350,-130
487,2,2022-09-15T20:40:57.737214,247706,-5345,1204,-483,6,-109,129,-27,347,-127
488,2,2022-09-15T20:40:57.743453,247712,-5345,1204,-483,6,-109,129,-27,347,-127
489,2,2022-09-15T20:40:57.749543,247718,-5345,1204,-483,6,-109,129,-27,347,-127
490,2,2022-09-15T20:40:57.754685,247724,-5345,1201,-495,-15,-113,242,-27,347,-127
491,2,2022-09-15T20:40:57.760080,247729,-5345,1201,-495,-15,-113,242,-27,347,-127
492,2,2022-09-15T20:40:57.766658,247736,-5345,1201,-495,-15,-113,242,-27,347,-127
493,2,2022-09-15T20:40:57.772806,247741,-5352,1203,-491,-8,-145,267,-27,347,-127
494,2,2022-09-15T20:40:57.779670,247748,-5352,1203,-491,-8,-145,267,-27,347,-127
495,2,2022-09-15T20:40:57.784994,247754,-5352,1203,-491,-8,-145,267,-27,347,-127
496,2,2022-09-15T20:40:57.790135,247759,-5352,1203,-491,-8,-145,267,-27,347,-127
497,2,2022-09-15T20:40:57.798237,247768,-5344,1212,-491,-9,-152,204,-27,347,-127
498,2,2022-09-15T20:40:57.803808,247773,-5344,1212,-491,-9,-152,204,-27,347,-127
499,2,2022-09-15T20:40:57.809315,247778,-5344,1212,-491,-9,-152,204,-27,347,-127
500,2,2022-09-15T20:40:57.814953,247783,-5355,1210,-491,-37,-143,190,-27,347,-127
501,2,2022-09-15T20:40:57.820838,247789,-5355,1210,-491,-37,-143,190,-27,347,-127
502,2,2022-09-15T20:40:57.826211,247795,-5355,1210,-491,-37,-143,190,-27,347,-127
503,2,2022-09-15T20:40:57.831692,247801,-5357,1215,-489,-57,-208,200,-27,347,-127
504,2,2022-09-15T20:40:57.837139,247806,-5357,1215,-489,-57,-208,200,-27,347,-127
505,2,2022-09-15T20:40:57.842958,247812,-5357,1215,-489,-57,-208,200,-27,347,-127
506,2,2022-09-15T20:40:57.849943,247818,-5357,1215,-489,-57,-208,200,-27,347,-127
507,2,2022-09-15T20:40:57.855165,247824,-5348,1224,-492,-67,-273,229,-29,345,-127
508,2,2022-09-15T20:40:57.861576,247830,-5348,1224,-492,-67,-273,229,-29,345,-127
509,2,2022-09-15T20:40:57.867624,247836,-5348,1224,-492,-67,-273,229,-29,345,-127
510,2,2022-09-15T20:40:57.873131,247841,-5340,1224,-489,-78,-296,283,-29,345,-127
511,2,2022-09-15T20:40:57.880236,247849,-5340,1224,-489,-78,-296,283,-29,345,-127
512,2,2022-09-15T20:40:57.886064,247855,-5340,1224,-489,-78,-296,283,-29,345,-127
513,2,2022-09-15T20:40:57.891959,247861,-5340,1224,-489,-78,-296,283,-29,345,-127
514,2,2022-09-15T20:40:57.898431,247866,-5346,1224,-491,-60,-298,347,-29,345,-127
515,2,2022-09-15T20:40:57.903958,247873,-5346,1224,-491,-60,-298,347,-29,345,-127
516,2,2022-09-15T20:40:57.909530,247878,-5346,1224,-491,-60,-298,347,-29,345,-127
517,2,2022-09-15T20:40:57.915279,247884,-5349,1219,-489,-36,-332,390,-29,345,-127
518,2,2022-09-15T20:40:57.922235,247890,-5349,1219,-489,-36,-332,390,-29,345,-127
519,2,2022-09-15T20:40:57.928367,247897,-5349,1219,-489,-36,-332,390,-29,345,-127
520,2,2022-09-15T20:40:57.934416,247904,-5348,1227,-489,-18,-359,317,-29,345,-127
521,2,2022-09-15T20:40:57.939732,247909,-5348,1227,-489,-18,-359,317,-29,345,-127
522,2,2022-09-15T20:40:57.949005,247917,-5348,1227,-489,-18,-359,317,-29,345,-127
523,2,2022-09-15T20:40:57.954653,247923,-5347,1233,-492,-19,-392,188,-29,345,-127
524,2,2022-09-15T20:40:57.960045,247929,-5347,1233,-492,-19,-392,188,-29,345,-127
525,2,2022-09-15T20:40:57.965385,247934,-5347,1233,-492,-19,-392,188,-29,345,-127
526,2,2022-09-15T20:40:57.971301,247941,-5347,1233,-492,-19,-392,188,-29,345,-127
527,2,2022-09-15T20:40:57.978307,247947,-5342,1240,-489,-33,-411,87,-35,343,-135
528,2,2022-09-15T20:40:57.984419,247953,-5342,1240,-489,-33,-411,87,-35,343,-135
529,2,2022-09-15T20:40:57.990295,247959,-5342,1240,-489,-33,-411,87,-35,343,-135
530,2,2022-09-15T20:40:57.998116,247967,-5339,1241,-485,-24,-425,73,-35,343,-135
531,2,2022-09-15T20:40:58.003359,247972,-5339,1241,-485,-24,-425,73,-35,343,-135
532,2,2022-09-15T20:40:58.009945,247980,-5339,1241,-485,-24,-425,73,-35,343,-135
533,2,2022-09-15T20:40:58.016670,247986,-5340,1243,-488,-28,-427,84,-35,343,-135
534,2,2022-09-15T20:40:58.024041,247992,-5340,1243,-488,-28,-427,84,-35,343,-135
535,2,2022-09-15T20:40:58.029932,247999,-5340,1243,-488,-28,-427,84,-35,343,-135
536,2,2022-09-15T20:40:58.035215,248004,-5354,1236,-482,-23,-435,60,-35,343,-135
537,2,2022-09-15T20:40:58.041188,248009,-5354,1236,-482,-23,-435,60,-35,343,-135
538,2,2022-09-15T20:40:58.047633,248015,-5354,1236,-482,-23,-435,60,-35,343,-135
539,2,2022-09-15T20:40:58.053454,248023,-5352,1229,-479,10,-464,-9,-35,343,-135
540,2,2022-09-15T20:40:58.059170,248028,-5352,1229,-479,10,-464,-9,-35,343,-135
541,2,2022-09-15T20:40:58.066737,248035,-5352,1229,-479,10,-464,-9,-35,343,-135
542,2,2022-09-15T20:40:58.072795,248042,-5346,1217,-476,86,-514,-93,-35,343,-135
543,2,2022-09-15T20:40:58.078162,248047,-5346,1217,-476,86,-514,-93,-35,343,-135
544,2,2022-09-15T20:40:58.083181,248052,-5346,1217,-476,86,-514,-93,-35,343,-135
545,2,2022-09-15T20:40:58.089100,248057,-5346,1217,-476,86,-514,-93,-35,343,-135
546,2,2022-09-15T20:40:58.095333,248064,-5330,1215,-468,171,-560,-189,-32,342,-132
547,2,2022-09-15T20:40:58.101884,248070,-5330,1215,-468,171,-560,-189,-32,342,-132
548,2,2022-09-15T20:40:58.108311,248078,-5330,1215,-468,171,-560,-189,-32,342,-132
549,2,2022-09-15T20:40:58.114541,248084,-5329,1217,-463,206,-557,-283,-32,342,-132
550,2,2022-09-15T20:40:58.121132,248089,-5329,1217,-463,206,-557,-283,-32,342,-132
551,2,2022-09-15T20:40:58.127612,248095,-5329,1217,-463,206,-557,-283,-32,342,-132
552,2,2022-09-15T20:40:58.133003,248102,-5325,1222,-470,165,-490,-380,-32,342,-132
553,2,2022-09-15T20:40:58.138462,248108,-5325,1222,-470,165,-490,-380,-32,342,-132
554,2,2022-09-15T20:40:58.144893,248113,-5325,1222,-470,165,-490,-380,-32,342,-132
555,2,2022-09-15T20:40:58.150373,248120,-5325,1222,-470,165,-490,-380,-32,342,-132
556,2,2022-09-15T20:40:58.155500,248125,-5315,1231,-470,80,-366,-392,-32,342,-132
557,2,2022-09-15T20:40:58.161757,248130,-5315,1231,-470,80,-366,-392,-32,342,-132
558,2,2022-09-15T20:40:58.168108,248136,-5315,1231,-470,80,-366,-392,-32,342,-132
559,2,2022-09-15T20:40:58.173592,248142,-5324,1238,-480,-20,-234,-248,-32,342,-132
560,2,2022-09-15T20:40:58.178999,248147,-5324,1238,-480,-20,-234,-248,-32,342,-132
561,2,2022-09-15T20:40:58.184914,248154,-5324,1238,-480,-20,-234,-248,-32,342,-132
562,2,2022-09-15T20:40:58.190035,248160,-5324,1238,-480,-20,-234,-248,-32,342,-132
563,2,2022-09-15T20:40:58.198555,248165,-5331,1242,-480,-102,-188,-10,-32,342,-132
564,2,2022-09-15T20:40:58.204280,248173,-5331,1242,-480,-102,-188,-10,-32,342,-132
565,2,2022-09-15T20:40:58.209746,248178,-5331,1242,-480,-102,-188,-10,-32,342,-132
566,2,2022-09-15T20:40:58.215246,248184,-5317,1254,-477,-146,-176,200,-28,346,-128
567,2,2022-09-15T20:40:58.222151,248190,-5317,1254,-477,-146,-176,200,-28,346,-128
568,2,2022-09-15T20:40:58.227754,248197,-5317,1254,-477,-146,-176,200,-28,346,-128
569,2,2022-09-15T20:40:58.233861,248202,-5358,1249,-475,-138,-130,413,-28,346,-128
570,2,2022-09-15T20:40:58.238969,248208,-5358,1249,-475,-138,-130,413,-28,346,-128
571,2,2022-09-15T20:40:58.245637,248213,-5358,1249,-475,-138,-130,413,-28,346,-128
572,2,2022-09-15T20:40:58.251078,248220,-5358,1249,-475,-138,-130,413,-28,346,-128
573,2,2022-09-15T20:40:58.257171,248226,-5364,1241,-471,-107,-221,410,-28,346,-128
574,2,2022-09-15T20:40:58.262781,248231,-5364,1241,-471,-107,-221,410,-28,346,-128
575,2,2022-09-15T20:40:58.269739,248238,-5364,1241,-471,-107,-221,410,-28,346,-128
576,2,2022-09-15T20:40:58.275930,248245,-5350,1249,-482,-80,-347,184,-28,346,-128
577,2,2022-09-15T20:40:58.281352,248250,-5350,1249,-482,-80,-347,184,-28,346,-128
578,2,2022-09-15T20:40:58.287544,248257,-5350,1249,-482,-80,-347,184,-28,346,-128
579,2,2022-09-15T20:40:58.293402,248262,-5342,1253,-474,-116,-313,-172,-28,346,-128
580,2,2022-09-15T20:40:58.299214,248268,-5342,1253,-474,-116,-313,-172,-28,346,-128
581,2,2022-09-15T20:40:58.305092,248273,-5342,1253,-474,-116,-313,-172,-28,346,-128
582,2,2022-09-15T20:40:58.310161,248280,-5342,1253,-474,-116,-313,-172,-28,346,-128
583,2,2022-09-15T20:40:58.320010,248286,-5342,1238,-469,-189,-213,-494,-28,346,-128
584,2,2022-09-15T20:40:58.325923,248295,-5342,1238,-469,-189,-213,-494,-28,346,-128
585,2,2022-09-15T20:40:58.331693,248301,-5342,1238,-469,-189,-213,-494,-28,346,-128
586,2,2022-09-15T20:40:58.337301,248306,-5338,1213,-467,-257,-180,-726,-28,346,-128
587,2,2022-09-15T20:40:58.343926,248312,-5338,1213,-467,-257,-180,-726,-28,346,-128
588,2,2022-09-15T20:40:58.351290,248321,-5338,1213,-467,-257,-180,-726,-28,346,-128
589,2,2022-09-15T20:40:58.356236,248326,-5336,1192,-458,-286,-191,-795,-29,343,-129
590,2,2022-09-15T20:40:58.361893,248331,-5336,1192,-458,-286,-191,-795,-29,343,-129
591,2,2022-09-15T20:40:58.369946,248338,-5336,1192,-458,-286,-191,-795,-29,343,-129
592,2,2022-09-15T20:40:58.377385,248346,-5331,1176,-460,-291,-201,-790,-29,343,-129
593,2,2022-09-15T20:40:58.383004,248351,-5331,1176,-460,-291,-201,-790,-29,343,-129
594,2,2022-09-15T20:40:58.389598,248358,-5331,1176,-460,-291,-201,-790,-29,343,-129
595,2,2022-09-15T20:40:58.396937,248366,-5338,1171,-471,-281,-160,-706,-29,343,-129
596,2,2022-09-15T20:40:58.403100,248371,-5338,1171,-471,-281,-160,-706,-29,343,-129
597,2,2022-09-15T20:40:58.408049,248377,-5338,1171,-471,-281,-160,-706,-29,343,-129
598,2,2022-09-15T20:40:58.413693,248382,-5342,1177,-472,-265,-117,-535,-29,343,-129
599,2,2022-09-15T20:40:58.420034,248388,-5342,1177,-472,-265,-117,-535,-29,343,-129
600,2,2022-09-15T20:40:58.426437,248394,-5342,1177,-472,-265,-117,-535,-29,343,-129
601,2,2022-09-15T20:40:58.431786,248401,-5342,1177,-472,-265,-117,-535,-29,343,-129
602,2,2022-09-15T20:40:58.438204,248408,-5347,1185,-479,-223,-78,-279,-29,343,-129
603,2,2022-09-15T20:40:58.444567,248413,-5347,1185,-479,-223,-78,-279,-29,343,-129
604,2,2022-09-15T20:40:58.449992,248419,-5347,1185,-479,-223,-78,-279,-29,343,-129
605,2,2022-09-15T20:40:58.456617,248426,-5339,1195,-484,-132,-79,16,-29,343,-129
606,2,2022-09-15T20:40:58.462243,248431,-5339,1195,-484,-132,-79,16,-29,343,-129
607,2,2022-09-15T20:40:58.468651,248437,-5339,1195,-484,-132,-79,16,-29,343,-129
608,2,2022-09-15T20:40:58.474818,248443,-5344,1208,-478,-24,-58,195,-31,353,-129
609,2,2022-09-15T20:40:58.481782,248451,-5344,1208,-478,-24,-58,195,-31,353,-129
610,2,2022-09-15T20:40:58.487541,248457,-5344,1208,-478,-24,-58,195,-31,353,-129
611,2,2022-09-15T20:40:58.493481,248462,-5354,1214,-479,80,-29,264,-31,353,-129
612,2,2022-09-15T20:40:58.499631,248468,-5354,1214,-479,80,-29,264,-31,353,-129
613,2,2022-09-15T20:40:58.506149,248475,-5354,1214,-479,80,-29,264,-31,353,-129
614,2,2022-09-15T20:40:58.511555,248480,-5354,1214,-479,80,-29,264,-31,353,-129
615,2,2022-09-15T20:40:58.517315,248485,-5364,1218,-476,157,-100,228,-31,353,-129
616,2,2022-09-15T20:40:58.523572,248492,-5364,1218,-476,157,-100,228,-31,353,-129
617,2,2022-09-15T20:40:58.529162,248499,-5364,1218,-476,157,-100,228,-31,353,-129
618,2,2022-09-15T20:40:58.535292,248505,-5357,1221,-489,188,-202,101,-31,353,-129
619,2,2022-09-15T20:40:58.541447,248510,-5357,1221,-489,188,-202,101,-31,353,-129
620,2,2022-09-15T20:40:58.547494,248516,-5357,1221,-489,188,-202,101,-31,353,-129
621,2,2022-09-15T20:40:58.552775,248522,-5351,1224,-490,116,-253,-74,-31,353,-129
622,2,2022-09-15T20:40:58.558080,248527,-5351,1224,-490,116,-253,-74,-31,353,-129
623,2,2022-09-15T20:40:58.563294,248532,-5351,1224,-490,116,-253,-74,-31,353,-129
624,2,2022-09-15T20:40:58.569493,248538,-5351,1224,-490,116,-253,-74,-31,353,-129
625,2,2022-09-15T20:40:58.576338,248546,-5358,1212,-487,18,-252,-187,-31,353,-129
626,2,2022-09-15T20:40:58.617934,248551,-5358,1212,-487,18,-252,-187,-31,353,-129
627,2,2022-09-15T20:40:58.652108,248592,-5351,1193,-490,-45,-307,-241,-33,351,-125
628,2,2022-09-15T20:40:58.665612,248633,-5348,1203,-486,15,-395,42,-33,351,-125
629,2,2022-09-15T20:40:58.675769,248644,-5344,1191,-479,115,-524,217,-33,351,-125
630,2,2022-09-15T20:40:58.685303,248654,-5344,1191,-479,115,-524,217,-33,351,-125
631,2,2022-09-15T20:40:58.699614,248668,-5330,1190,-479,207,-638,244,-33,351,-125
632,2,2022-09-15T20:40:58.710545,248678,-5330,1190,-479,207,-638,244,-33,351,-125
633,2,2022-09-15T20:40:58.719114,248686,-5343,1186,-473,246,-665,161,-30,346,-124
634,2,2022-09-15T20:40:58.725081,248693,-5343,1186,-473,246,-665,161,-30,346,-124
635,2,2022-09-15T20:40:58.734781,248704,-5345,1187,-471,263,-686,62,-30,346,-124
636,2,2022-09-15T20:40:58.743014,248712,-5345,1187,-471,263,-686,62,-30,346,-124
637,2,2022-09-15T20:40:58.752034,248721,-5345,1187,-471,263,-686,62,-30,346,-124
638,2,2022-09-15T20:40:58.758546,248728,-5334,1199,-478,291,-674,81,-30,346,-124
639,2,2022-09-15T20:40:58.765013,248734,-5334,1199,-478,291,-674,81,-30,346,-124
640,2,2022-09-15T20:40:58.770952,248739,-5334,1199,-478,291,-674,81,-30,346,-124
641,2,2022-09-15T20:40:58.777353,248747,-5330,1185,-480,391,-607,278,-30,346,-124
642,2,2022-09-15T20:40:58.783630,248753,-5330,1185,-480,391,-607,278,-30,346,-124
643,2,2022-09-15T20:40:58.789905,248760,-5330,1185,-480,391,-607,278,-30,346,-124
644,2,2022-09-15T20:40:58.798866,248768,-5312,1184,-475,653,-565,534,-30,346,-124
645,2,2022-09-15T20:40:58.805605,248774,-5312,1184,-475,653,-565,534,-30,346,-124
646,2,2022-09-15T20:40:58.811037,248780,-5312,1184,-475,653,-565,534,-30,346,-124
647,2,2022-09-15T20:40:58.817848,248786,-5321,1208,-479,1061,-462,847,-30,346,-124
648,2,2022-09-15T20:40:58.823838,248793,-5321,1208,-479,1061,-462,847,-30,346,-124
649,2,2022-09-15T20:40:58.830178,248800,-5321,1208,-479,1061,-462,847,-30,346,-124
650,2,2022-09-15T20:40:58.836274,248806,-5326,1244,-480,1332,-397,994,-41,351,-125
651,2,2022-09-15T20:40:58.843529,248812,-5326,1244,-480,1332,-397,994,-41,351,-125
652,2,2022-09-15T20:40:58.852245,248820,-5326,1244,-480,1332,-397,994,-41,351,-125
653,2,2022-09-15T20:40:58.858179,248827,-5339,1277,-483,1380,-373,973,-41,351,-125
654,2,2022-09-15T20:40:58.863541,248833,-5339,1277,-483,1380,-373,973,-41,351,-125
655,2,2022-09-15T20:40:58.870862,248840,-5339,1277,-483,1380,-373,973,-41,351,-125
656,2,2022-09-15T20:40:58.877248,248847,-5343,1285,-486,1240,-367,815,-41,351,-125
657,2,2022-09-15T20:40:58.884672,248854,-5343,1285,-486,1240,-367,815,-41,351,-125
658,2,2022-09-15T20:40:58.890383,248859,-5343,1285,-486,1240,-367,815,-41,351,-125
659,2,2022-09-15T20:40:58.898504,248867,-5355,1284,-479,1006,-362,558,-41,351,-125
660,2,2022-09-15T20:40:58.904557,248873,-5355,1284,-479,1006,-362,558,-41,351,-125
661,2,2022-09-15T20:40:58.911038,248881,-5355,1284,-479,1006,-362,558,-41,351,-125
662,2,2022-09-15T20:40:58.917842,248887,-5360,1264,-480,774,-455,282,-41,351,-125
663,2,2022-09-15T20:40:58.926862,248896,-5360,1264,-480,774,-455,282,-41,351,-125
664,2,2022-09-15T20:40:58.933014,248902,-5334,1255,-480,621,-636,98,-41,351,-125
665,2,2022-09-15T20:40:58.939365,248908,-5334,1255,-480,621,-636,98,-41,351,-125
666,2,2022-09-15T20:40:58.947439,248916,-5334,1255,-480,621,-636,98,-41,351,-125
667,2,2022-09-15T20:40:58.952442,248922,-5308,1259,-486,552,-752,103,-41,351,-125
668,2,2022-09-15T20:40:58.959210,248929,-5308,1259,-486,552,-752,103,-41,351,-125
669,2,2022-09-15T20:40:58.965744,248935,-5308,1259,-486,552,-752,103,-41,351,-125
670,2,2022-09-15T20:40:58.972057,248941,-5308,1259,-486,552,-752,103,-41,351,-125
671,2,2022-09-15T20:40:58.979106,248948,-5303,1266,-481,524,-741,250,-29,345,-135
672,2,2022-09-15T20:40:58.984940,248953,-5303,1266,-481,524,-741,250,-29,345,-135
673,2,2022-09-15T20:40:58.990680,248960,-5303,1266,-481,524,-741,250,-29,345,-135
674,2,2022-09-15T20:40:59.000003,248969,-5298,1274,-475,523,-702,423,-29,345,-135
675,2,2022-09-15T20:40:59.005334,248975,-5298,1274,-475,523,-702,423,-29,345,-135
676,2,2022-09-15T20:40:59.011604,248981,-5298,1274,-475,523,-702,423,-29,345,-135
677,2,2022-09-15T20:40:59.019207,248987,-5303,1279,-469,564,-688,577,-29,345,-135
678,2,2022-09-15T20:40:59.025701,248994,-5303,1279,-469,564,-688,577,-29,345,-135
679,2,2022-09-15T20:40:59.031962,249001,-5303,1279,-469,564,-688,577,-29,345,-135
680,2,2022-09-15T20:40:59.038060,249008,-5298,1282,-471,638,-727,674,-29,345,-135
681,2,2022-09-15T20:40:59.044088,249013,-5298,1282,-471,638,-727,674,-29,345,-135
682,2,2022-09-15T20:40:59.051431,249021,-5298,1282,-471,638,-727,674,-29,345,-135
683,2,2022-09-15T20:40:59.058558,249027,-5302,1284,-474,731,-707,653,-29,345,-135
684,2,2022-09-15T20:40:59.064646,249033,-5302,1284,-474,731,-707,653,-29,345,-135
685,2,2022-09-15T20:40:59.071594,249040,-5302,1284,-474,731,-707,653,-29,345,-135
686,2,2022-09-15T20:40:59.078204,249048,-5310,1294,-480,805,-659,448,-29,345,-135
687,2,2022-09-15T20:40:59.083788,249053,-5310,1294,-480,805,-659,448,-29,345,-135
688,2,2022-09-15T20:40:59.089465,249058,-5310,1294,-480,805,-659,448,-29,345,-135
689,2,2022-09-15T20:40:59.098196,249067,-5317,1304,-475,845,-606,211,-31,343,-133
690,2,2022-09-15T20:40:59.103449,249072,-5317,1304,-475,845,-606,211,-31,343,-133
691,2,2022-09-15T20:40:59.110929,249079,-5317,1304,-475,845,-606,211,-31,343,-133
692,2,2022-09-15T20:40:59.117886,249086,-5320,1302,-471,873,-573,39,-31,343,-133
693,2,2022-09-15T20:40:59.125600,249095,-5320,1302,-471,873,-573,39,-31,343,-133
694,2,2022-09-15T20:40:59.132102,249102,-5320,1302,-471,873,-573,39,-31,343,-133
695,2,2022-09-15T20:40:59.139327,249109,-5316,1295,-477,888,-549,-60,-31,343,-133
696,2,2022-09-15T20:40:59.149966,249119,-5316,1295,-477,888,-549,-60,-31,343,-133
697,2,2022-09-15T20:40:59.156737,249126,-5309,1293,-477,861,-498,-112,-31,343,-133
698,2,2022-09-15T20:40:59.162651,249132,-5309,1293,-477,861,-498,-112,-31,343,-133
699,2,2022-09-15T20:40:59.170079,249139,-5309,1293,-477,861,-498,-112,-31,343,-133
700,2,2022-09-15T20:40:59.176841,249146,-5331,1291,-475,769,-447,-203,-31,343,-133
701,2,2022-09-15T20:40:59.183404,249153,-5331,1291,-475,769,-447,-203,-31,343,-133
702,2,2022-09-15T20:40:59.190027,249159,-5331,1291,-475,769,-447,-203,-31,343,-133
703,2,2022-09-15T20:40:59.199358,249168,-5330,1299,-479,611,-457,-313,-31,343,-133
704,2,2022-09-15T20:40:59.206811,249177,-5330,1299,-479,611,-457,-313,-31,343,-133
705,2,2022-09-15T20:40:59.212072,249182,-5330,1299,-479,611,-457,-313,-31,343,-133
706,2,2022-09-15T20:40:59.217740,249187,-5316,1295,-471,452,-506,-370,-39,341,-133
707,2,2022-09-15T20:40:59.226604,249196,-5316,1295,-471,452,-506,-370,-39,341,-133
708,2,2022-09-15T20:40:59.233515,249202,-5304,1289,-476,328,-529,-339,-39,341,-133
709,2,2022-09-15T20:40:59.240136,249209,-5304,1289,-476,328,-529,-339,-39,341,-133
710,2,2022-09-15T20:40:59.249259,249219,-5304,1289,-476,328,-529,-339,-39,341,-133
711,2,2022-09-15T20:40:59.256490,249226,-5304,1273,-470,253,-539,-261,-39,341,-133
712,2,2022-09-15T20:40:59.262908,249231,-5304,1273,-470,253,-539,-261,-39,341,-133
713,2,2022-09-15T20:40:59.269845,249238,-5304,1273,-470,253,-539,-261,-39,341,-133
714,2,2022-09-15T20:40:59.277007,249246,-5304,1269,-473,245,-515,-212,-39,341,-133
715,2,2022-09-15T20:40:59.283619,249252,-5304,1269,-473,245,-515,-212,-39,341,-133
716,2,2022-09-15T20:40:59.288824,249257,-5304,1269,-473,245,-515,-212,-39,341,-133
717,2,2022-09-15T20:40:59.296129,249265,-5310,1269,-469,253,-474,-200,-39,341,-133
718,2,2022-09-15T20:40:59.303234,249272,-5310,1269,-469,253,-474,-200,-39,341,-133
719,2,2022-09-15T20:40:59.309225,249279,-5310,1269,-469,253,-474,-200,-39,341,-133
720,2,2022-09-15T20:40:59.314398,249284,-5309,1280,-470,259,-412,-203,-39,341,-133
721,2,2022-09-15T20:40:59.321486,249290,-5309,1280,-470,259,-412,-203,-39,341,-133
722,2,2022-09-15T20:40:59.328054,249297,-5309,1280,-470,259,-412,-203,-39,341,-133
723,2,2022-09-15T20:40:59.333461,249303,-5306,1286,-464,237,-354,-159,-34,352,-130
724,2,2022-09-15T20:40:59.340079,249309,-5306,1286,-464,237,-354,-159,-34,352,-130
725,2,2022-09-15T20:40:59.348858,249318,-5306,1286,-464,237,-354,-159,-34,352,-130
726,2,2022-09-15T20:40:59.354009,249323,-5314,1289,-466,202,-284,-51,-34,352,-130
727,2,2022-09-15T20:40:59.361100,249329,-5314,1289,-466,202,-284,-51,-34,352,-130
728,2,2022-09-15T20:40:59.367100,249335,-5314,1289,-466,202,-284,-51,-34,352,-130
729,2,2022-09-15T20:40:59.374093,249344,-5323,1277,-474,170,-234,17,-34,352,-130
730,2,2022-09-15T20:40:59.381513,249350,-5323,1277,-474,170,-234,17,-34,352,-130
731,2,2022-09-15T20:40:59.388418,249358,-5323,1277,-474,170,-234,17,-34,352,-130
732,2,2022-09-15T20:40:59.394123,249363,-5321,1269,-471,177,-216,-17,-34,352,-130
733,2,2022-09-15T20:40:59.402047,249370,-5321,1269,-471,177,-216,-17,-34,352,-130
734,2,2022-09-15T20:40:59.408518,249378,-5321,1269,-471,177,-216,-17,-34,352,-130
735,2,2022-09-15T20:40:59.413623,249383,-5318,1266,-476,188,-179,-131,-34,352,-130
736,2,2022-09-15T20:40:59.419271,249388,-5318,1266,-476,188,-179,-131,-34,352,-130
737,2,2022-09-15T20:40:59.428554,249397,-5318,1266,-476,188,-179,-131,-34,352,-130
738,2,2022-09-15T20:40:59.434761,249404,-5312,1271,-478,189,-133,-241,-34,352,-130
739,2,2022-09-15T20:40:59.441402,249410,-5312,1271,-478,189,-133,-241,-34,352,-130
740,2,2022-09-15T20:40:59.450814,249420,-5312,1271,-478,189,-133,-241,-34,352,-130
741,2,2022-09-15T20:40:59.457595,249426,-5318,1276,-476,163,-113,-295,-28,346,-130
742,2,2022-09-15T20:40:59.464291,249434,-5318,1276,-476,163,-113,-295,-28,346,-130
743,2,2022-09-15T20:40:59.472089,249441,-5318,1276,-476,163,-113,-295,-28,346,-130
744,2,2022-09-15T20:40:59.479386,249449,-5314,1273,-472,110,-135,-312,-28,346,-130
745,2,2022-09-15T20:40:59.486355,249455,-5314,1273,-472,110,-135,-312,-28,346,-130
746,2,2022-09-15T20:40:59.492355,249461,-5314,1273,-472,110,-135,-312,-28,346,-130
747,2,2022-09-15T20:40:59.500765,249469,-5301,1272,-479,52,-136,-274,-28,346,-130
748,2,2022-09-15T20:40:59.506317,249476,-5301,1272,-479,52,-136,-274,-28,346,-130
749,2,2022-09-15T20:40:59.511438,249481,-5301,1272,-479,52,-136,-274,-28,346,-130
750,2,2022-09-15T20:40:59.518673,249488,-5312,1274,-480,6,-88,-153,-28,346,-130
751,2,2022-09-15T20:40:59.524795,249494,-5312,1274,-480,6,-88,-153,-28,346,-130
752,2,2022-09-15T20:40:59.532344,249501,-5312,1274,-480,6,-88,-153,-28,346,-130
753,2,2022-09-15T20:40:59.537697,249506,-5317,1270,-485,-60,-68,-95,-28,346,-130
754,2,2022-09-15T20:40:59.545442,249512,-5317,1270,-485,-60,-68,-95,-28,346,-130
755,2,2022-09-15T20:40:59.552020,249522,-5317,1270,-485,-60,-68,-95,-28,346,-130
756,2,2022-09-15T20:40:59.558559,249528,-5323,1276,-488,-125,-33,-111,-28,346,-130
757,2,2022-09-15T20:40:59.565857,249535,-5323,1276,-488,-125,-33,-111,-28,346,-130
758,2,2022-09-15T20:40:59.572631,249541,-5323,1276,-488,-125,-33,-111,-28,346,-130
759,2,2022-09-15T20:40:59.579352,249548,-5344,1271,-487,-176,-54,-127,-28,346,-130
760,2,2022-09-15T20:40:59.586050,249554,-5344,1271,-487,-176,-54,-127,-28,346,-130
761,2,2022-09-15T20:40:59.591490,249561,-5344,1271,-487,-176,-54,-127,-28,346,-130
762,2,2022-09-15T20:40:59.598721,249568,-5326,1269,-486,-198,-188,-118,-28,348,-138
763,2,2022-09-15T20:40:59.605162,249574,-5326,1269,-486,-198,-188,-118,-28,348,-138
764,2,2022-09-15T20:40:59.612302,249581,-5326,1269,-486,-198,-188,-118,-28,348,-138
765,2,2022-09-15T20:40:59.619451,249588,-5315,1264,-489,-154,-266,-38,-28,348,-138
766,2,2022-09-15T20:40:59.626454,249595,-5315,1264,-489,-154,-266,-38,-28,348,-138
767,2,2022-09-15T20:40:59.631585,249601,-5315,1264,-489,-154,-266,-38,-28,348,-138
768,2,2022-09-15T20:40:59.638098,249607,-5316,1264,-487,-104,-268,0,-28,348,-138
769,2,2022-09-15T20:40:59.645873,249613,-5316,1264,-487,-104,-268,0,-28,348,-138
770,2,2022-09-15T20:40:59.653281,249622,-5319,1265,-485,-47,-264,-25,-28,348,-138
771,2,2022-09-15T20:40:59.660126,249629,-5319,1265,-485,-47,-264,-25,-28,348,-138
772,2,2022-09-15T20:40:59.667057,249635,-5319,1265,-485,-47,-264,-25,-28,348,-138
773,2,2022-09-15T20:40:59.673447,249643,-5314,1270,-488,9,-276,-85,-28,348,-138
774,2,2022-09-15T20:40:59.679969,249649,-5314,1270,-488,9,-276,-85,-28,348,-138
775,2,2022-09-15T20:40:59.687477,249657,-5314,1270,-488,9,-276,-85,-28,348,-138
776,2,2022-09-15T20:40:59.693454,249662,-5314,1270,-488,9,-276,-85,-28,348,-138
777,2,2022-09-15T20:40:59.701297,249670,-5304,1271,-492,53,-245,-100,-28,348,-138
778,2,2022-09-15T20:40:59.708114,249677,-5304,1271,-492,53,-245,-100,-28,348,-138
779,2,2022-09-15T20:40:59.713841,249683,-5310,1269,-486,83,-179,-81,-30,346,-130
780,2,2022-09-15T20:40:59.721004,249690,-5310,1269,-486,83,-179,-81,-30,346,-130
781,2,2022-09-15T20:40:59.728952,249698,-5310,1269,-486,83,-179,-81,-30,346,-130
782,2,2022-09-15T20:40:59.734438,249704,-5312,1273,-492,84,-153,-98,-30,346,-130
783,2,2022-09-15T20:40:59.740976,249710,-5312,1273,-492,84,-153,-98,-30,346,-130
784,2,2022-09-15T20:40:59.750293,249719,-5312,1273,-492,84,-153,-98,-30,346,-130
785,2,2022-09-15T20:40:59.758174,249728,-5317,1280,-487,41,-140,-129,-30,346,-130
786,2,2022-09-15T20:40:59.763638,249733,-5317,1280,-487,41,-140,-129,-30,346,-130
787,2,2022-09-15T20:40:59.770770,249740,-5317,1280,-487,41,-140,-129,-30,346,-130
788,2,2022-09-15T20:40:59.777683,249747,-5321,1287,-486,-41,-160,-131,-30,346,-130
789,2,2022-09-15T20:40:59.783474,249752,-5321,1287,-486,-41,-160,-131,-30,346,-130
790,2,2022-09-15T20:40:59.789908,249759,-5321,1287,-486,-41,-160,-131,-30,346,-130
791,2,2022-09-15T20:40:59.797810,249766,-5322,1279,-495,-86,-173,-120,-30,346,-130
792,2,2022-09-15T20:40:59.803404,249773,-5322,1279,-495,-86,-173,-120,-30,346,-130
793,2,2022-09-15T20:40:59.810213,249780,-5322,1279,-495,-86,-173,-120,-30,346,-130
794,2,2022-09-15T20:40:59.816870,249786,-5317,1274,-497,-135,-168,-170,-30,346,-130
795,2,2022-09-15T20:40:59.822896,249792,-5317,1274,-497,-135,-168,-170,-30,346,-130
796,2,2022-09-15T20:40:59.829665,249799,-5317,1274,-497,-135,-168,-170,-30,346,-130
797,2,2022-09-15T20:40:59.836092,249805,-5324,1270,-486,-140,-147,-217,-34,346,-130
798,2,2022-09-15T20:40:59.841874,249810,-5324,1270,-486,-140,-147,-217,-34,346,-130
799,2,2022-09-15T20:40:59.850777,249820,-5324,1270,-486,-140,-147,-217,-34,346,-130
800,2,2022-09-15T20:40:59.857083,249827,-5319,1266,-488,-135,-171,-229,-34,346,-130
801,2,2022-09-15T20:40:59.862969,249832,-5319,1266,-488,-135,-171,-229,-34,346,-130
802,2,2022-09-15T20:40:59.870162,249839,-5319,1266,-488,-135,-171,-229,-34,346,-130
803,2,2022-09-15T20:40:59.875519,249845,-5316,1265,-489,-127,-217,-222,-34,346,-130
804,2,2022-09-15T20:40:59.882973,249852,-5316,1265,-489,-127,-217,-222,-34,346,-130
805,2,2022-09-15T20:40:59.888357,249858,-5316,1265,-489,-127,-217,-222,-34,346,-130
806,2,2022-09-15T20:40:59.894444,249863,-5311,1266,-485,-138,-196,-229,-34,346,-130
807,2,2022-09-15T20:40:59.902752,249872,-5311,1266,-485,-138,-196,-229,-34,346,-130
808,2,2022-09-15T20:40:59.908893,249878,-5311,1266,-485,-138,-196,-229,-34,346,-130
809,2,2022-09-15T20:40:59.914370,249883,-5317,1268,-486,-166,-153,-224,-34,346,-130
810,2,2022-09-15T20:40:59.921455,249890,-5317,1268,-486,-166,-153,-224,-34,346,-130
811,2,2022-09-15T20:40:59.928283,249897,-5317,1268,-486,-166,-153,-224,-34,346,-130
812,2,2022-09-15T20:40:59.933524,249903,-5315,1274,-497,-159,-126,-172,-34,346,-130
813,2,2022-09-15T20:40:59.941483,249911,-5315,1274,-497,-159,-126,-172,-34,346,-130
814,2,2022-09-15T20:40:59.949726,249919,-5315,1274,-497,-159,-126,-172,-34,346,-130
815,2,2022-09-15T20:40:59.955620,249925,-5320,1272,-488,-144,-138,-86,-33,353,-133
816,2,2022-09-15T20:40:59.962344,249931,-5320,1272,-488,-144,-138,-86,-33,353,-133
817,2,2022-09-15T20:40:59.969369,249938,-5320,1272,-488,-144,-138,-86,-33,353,-133
818,2,2022-09-15T20:40:59.975556,249945,-5327,1273,-484,-106,-158,-54,-33,353,-133
819,2,2022-09-15T20:40:59.982415,249952,-5327,1273,-484,-106,-158,-54,-33,353,-133
820,2,2022-09-15T20:40:59.990108,249959,-5327,1273,-484,-106,-158,-54,-33,353,-133
821,2,2022-09-15T20:40:59.997475,249966,-5321,1273,-485,-96,-189,-118,-33,353,-133
822,2,2022-09-15T20:41:00.003783,249973,-5321,1273,-485,-96,-189,-118,-33,353,-133
823,2,2022-09-15T20:41:00.010156,249979,-5321,1273,-485,-96,-189,-118,-33,353,-133
824,2,2022-09-15T20:41:00.023907,249987,-5320,1277,-492,-127,-186,-196,-33,353,-133
825,2,2022-09-15T20:41:00.030935,250000,-5320,1277,-492,-127,-186,-196,-33,353,-133
826,2,2022-09-15T20:41:00.039567,250009,-5329,1272,-487,-192,-182,-215,-33,353,-133
827,2,2022-09-15T20:41:00.049199,250018,-5329,1272,-487,-192,-182,-215,-33,353,-133
828,2,2022-09-15T20:41:00.055496,250024,-5329,1272,-487,-192,-182,-215,-33,353,-133
829,2,2022-09-15T20:41:00.065817,250035,-5329,1272,-487,-192,-182,-215,-33,353,-133
830,2,2022-09-15T20:41:00.075641,250045,-5313,1266,-492,-274,-198,-315,-31,335,-129
831,2,2022-09-15T20:41:00.082018,250051,-5313,1266,-492,-274,-198,-315,-31,335,-129
832,2,2022-09-15T20:41:00.088591,250057,-5313,1266,-492,-274,-198,-315,-31,335,-129
833,2,2022-09-15T20:41:00.094639,250063,-5314,1267,-484,-308,-114,-312,-31,335,-129
834,2,2022-09-15T20:41:00.101442,250071,-5314,1267,-484,-308,-114,-312,-31,335,-129
835,2,2022-09-15T20:41:00.108040,250078,-5314,1267,-484,-308,-114,-312,-31,335,-129
836,2,2022-09-15T20:41:00.113248,250083,-5323,1271,-490,-315,-90,-231,-31,335,-129
837,2,2022-09-15T20:41:00.120725,250089,-5323,1271,-490,-315,-90,-231,-31,335,-129
838,2,2022-09-15T20:41:00.127663,250097,-5323,1271,-490,-315,-90,-231,-31,335,-129
839,2,2022-09-15T20:41:00.133591,250103,-5324,1273,-485,-300,-110,-134,-31,335,-129
840,2,2022-09-15T20:41:00.140120,250109,-5324,1273,-485,-300,-110,-134,-31,335,-129
841,2,2022-09-15T20:41:00.147906,250117,-5324,1273,-485,-300,-110,-134,-31,335,-129
842,2,2022-09-15T20:41:00.152894,250123,-5324,1273,-485,-300,-110,-134,-31,335,-129
843,2,2022-09-15T20:41:00.159256,250129,-5329,1261,-479,-292,-190,-120,-31,335,-129
844,2,2022-09-15T20:41:00.167311,250136,-5329,1261,-479,-292,-190,-120,-31,335,-129
845,2,2022-09-15T20:41:00.174796,250143,-5314,1255,-488,-312,-244,-254,-31,335,-129
846,2,2022-09-15T20:41:00.181477,250150,-5314,1255,-488,-312,-244,-254,-31,335,-129
847,2,2022-09-15T20:41:00.188672,250158,-5314,1255,-488,-312,-244,-254,-31,335,-129
848,2,2022-09-15T20:41:00.195342,250164,-5318,1257,-481,-360,-199,-326,-31,335,-129
849,2,2022-09-15T20:41:00.203358,250172,-5318,1257,-481,-360,-199,-326,-31,335,-129
850,2,2022-09-15T20:41:00.210330,250179,-5318,1257,-481,-360,-199,-326,-31,335,-129
851,2,2022-09-15T20:41:00.216388,250185,-5323,1248,-476,-372,-159,-327,-34,348,-134
852,2,2022-09-15T20:41:00.225593,250194,-5323,1248,-476,-372,-159,-327,-34,348,-134
853,2,2022-09-15T20:41:00.232964,250202,-5323,1248,-476,-372,-159,-327,-34,348,-134
854,2,2022-09-15T20:41:00.239945,250209,-5307,1268,-477,-341,-76,-351,-34,348,-134
855,2,2022-09-15T20:41:00.249894,250219,-5307,1268,-477,-341,-76,-351,-34,348,-134
856,2,2022-09-15T20:41:00.256906,250225,-5318,1280,-481,-322,15,-321,-34,348,-134
857,2,2022-09-15T20:41:00.262630,250231,-5318,1280,-481,-322,15,-321,-34,348,-134
858,2,2022-09-15T20:41:00.271945,250241,-5318,1280,-481,-322,15,-321,-34,348,-134
859,2,2022-09-15T20:41:00.279042,250249,-5309,1293,-488,-331,38,-252,-34,348,-134
860,2,2022-09-15T20:41:00.285454,250255,-5309,1293,-488,-331,38,-252,-34,348,-134
861,2,2022-09-15T20:41:00.290631,250260,-5309,1293,-488,-331,38,-252,-34,348,-134
862,2,2022-09-15T20:41:00.297050,250266,-5305,1305,-493,-366,123,-104,-34,348,-134
863,2,2022-09-15T20:41:00.302672,250271,-5305,1305,-493,-366,123,-104,-34,348,-134
864,2,2022-09-15T20:41:00.308024,250277,-5305,1305,-493,-366,123,-104,-34,348,-134
865,2,2022-09-15T20:41:00.313380,250283,-5305,1305,-493,-366,123,-104,-34,348,-134
866,2,2022-09-15T20:41:00.319736,250289,-5308,1307,-497,-458,218,-67,-34,348,-134
867,2,2022-09-15T20:41:00.328106,250297,-5308,1307,-497,-458,218,-67,-34,348,-134
868,2,2022-09-15T20:41:00.334389,250304,-5332,1291,-496,-562,288,-166,-40,346,-136
869,2,2022-09-15T20:41:00.341733,250310,-5332,1291,-496,-562,288,-166,-40,346,-136
870,2,2022-09-15T20:41:00.348121,250317,-5332,1291,-496,-562,288,-166,-40,346,-136
871,2,2022-09-15T20:41:00.353302,250322,-5332,1291,-496,-562,288,-166,-40,346,-136
872,2,2022-09-15T20:41:00.359370,250329,-5336,1273,-506,-660,236,-409,-40,346,-136
873,2,2022-09-15T20:41:00.366942,250336,-5336,1273,-506,-660,236,-409,-40,346,-136
874,2,2022-09-15T20:41:00.372079,250342,-5336,1273,-506,-660,236,-409,-40,346,-136
875,2,2022-09-15T20:41:00.378272,250348,-5321,1268,-519,-723,199,-639,-40,346,-136
876,2,2022-09-15T20:41:00.383795,250353,-5321,1268,-519,-723,199,-639,-40,346,-136
877,2,2022-09-15T20:41:00.390584,250359,-5321,1268,-519,-723,199,-639,-40,346,-136
878,2,2022-09-15T20:41:00.395697,250365,-5322,1267,-525,-755,220,-762,-40,346,-136
879,2,2022-09-15T20:41:00.402323,250372,-5322,1267,-525,-755,220,-762,-40,346,-136
880,2,2022-09-15T20:41:00.409924,250379,-5322,1267,-525,-755,220,-762,-40,346,-136
881,2,2022-09-15T20:41:00.415289,250385,-5344,1263,-531,-767,188,-706,-40,346,-136
882,2,2022-09-15T20:41:00.422745,250392,-5344,1263,-531,-767,188,-706,-40,346,-136
883,2,2022-09-15T20:41:00.433337,250402,-5344,1263,-531,-767,188,-706,-40,346,-136
884,2,2022-09-15T20:41:00.441316,250411,-5348,1256,-535,-723,34,-534,-40,346,-136
885,2,2022-09-15T20:41:00.448406,250418,-5348,1256,-535,-723,34,-534,-40,346,-136
886,2,2022-09-15T20:41:00.454280,250424,-5334,1257,-533,-656,-98,-437,-34,344,-136
887,2,2022-09-15T20:41:00.463120,250432,-5334,1257,-533,-656,-98,-437,-34,344,-134
888,2,2022-09-15T20:41:00.471249,250439,-5334,1257,-533,-656,-98,-437,-34,344,-134
889,2,2022-09-15T20:41:00.476805,250446,-5347,1245,-532,-606,-159,-413,-34,344,-134
890,2,2022-09-15T20:41:00.485729,250455,-5347,1245,-532,-606,-159,-413,-34,344,-134
891,2,2022-09-15T20:41:00.492395,250462,-5347,1245,-532,-606,-159,-413,-34,344,-134
892,2,2022-09-15T20:41:00.498467,250468,-5368,1241,-524,-556,-273,-513,-34,344,-134
893,2,2022-09-15T20:41:00.504174,250473,-5368,1241,-524,-556,-273,-513,-34,344,-134
894,2,2022-09-15T20:41:00.511129,250481,-5368,1241,-524,-556,-273,-513,-34,344,-134
895,2,2022-09-15T20:41:00.517889,250487,-5360,1246,-513,-465,-491,-628,-34,344,-134
896,2,2022-09-15T20:41:00.524254,250492,-5360,1246,-513,-465,-491,-628,-34,344,-134
897,2,2022-09-15T20:41:00.531613,250501,-5360,1246,-513,-465,-491,-628,-34,344,-134
898,2,2022-09-15T20:41:00.538544,250508,-5356,1247,-503,-388,-630,-682,-34,344,-134
899,2,2022-09-15T20:41:00.544442,250514,-5356,1247,-503,-388,-630,-682,-34,344,-134
900,2,2022-09-15T20:41:00.550847,250520,-5356,1247,-503,-388,-630,-682,-34,344,-134
901,2,2022-09-15T20:41:00.557172,250526,-5360,1241,-488,-352,-680,-723,-34,344,-134
902,2,2022-09-15T20:41:00.562715,250531,-5360,1241,-488,-352,-680,-723,-34,344,-134
903,2,2022-09-15T20:41:00.569137,250539,-5360,1241,-488,-352,-680,-723,-34,344,-134
904,2,2022-09-15T20:41:00.574734,250544,-5352,1226,-482,-358,-706,-820,-29,347,-129
905,2,2022-09-15T20:41:00.583803,250553,-5352,1226,-482,-358,-706,-820,-29,347,-129
906,2,2022-09-15T20:41:00.591701,250560,-5352,1226,-482,-358,-706,-820,-29,347,-129
907,2,2022-09-15T20:41:00.598529,250568,-5347,1216,-466,-371,-694,-973,-29,347,-129
908,2,2022-09-15T20:41:00.604772,250574,-5347,1216,-466,-371,-694,-973,-29,347,-129
909,2,2022-09-15T20:41:00.610993,250580,-5347,1216,-466,-371,-694,-973,-29,347,-129
910,2,2022-09-15T20:41:00.616222,250586,-5348,1207,-458,-394,-704,-1089,-29,347,-129
911,2,2022-09-15T20:41:00.623246,250593,-5348,1207,-458,-394,-704,-1089,-29,347,-129
912,2,2022-09-15T20:41:00.630578,250599,-5348,1207,-458,-394,-704,-1089,-29,347,-129
913,2,2022-09-15T20:41:00.636174,250605,-5353,1213,-439,-465,-685,-1125,-29,347,-129
914,2,2022-09-15T20:41:00.642031,250611,-5353,1213,-439,-465,-685,-1125,-29,347,-129
915,2,2022-09-15T20:41:00.648369,250617,-5353,1213,-439,-465,-685,-1125,-29,347,-129
916,2,2022-09-15T20:41:00.654273,250624,-5353,1213,-439,-465,-685,-1125,-29,347,-129
917,2,2022-09-15T20:41:00.660746,250630,-5361,1207,-427,-601,-690,-1092,-29,347,-129
918,2,2022-09-15T20:41:00.667900,250637,-5361,1207,-427,-601,-690,-1092,-29,347,-129
919,2,2022-09-15T20:41:00.673377,250643,-5361,1207,-427,-601,-690,-1092,-29,347,-129
920,2,2022-09-15T20:41:00.679831,250649,-5363,1194,-406,-845,-739,-1107,-29,347,-129
921,2,2022-09-15T20:41:00.688036,250657,-5363,1194,-406,-845,-739,-1107,-29,347,-129
922,2,2022-09-15T20:41:00.693487,250662,-5363,1194,-406,-845,-739,-1107,-29,347,-129
923,2,2022-09-15T20:41:00.698679,250668,-5356,1187,-398,-1183,-732,-1194,-31,347,-129
924,2,2022-09-15T20:41:00.705101,250674,-5356,1187,-398,-1183,-732,-1194,-31,347,-129
925,2,2022-09-15T20:41:00.710888,250680,-5356,1187,-398,-1183,-732,-1194,-31,347,-129
926,2,2022-09-15T20:41:00.716861,250686,-5343,1181,-399,-1579,-604,-1244,-31,347,-129
927,2,2022-09-15T20:41:00.723731,250692,-5343,1181,-399,-1579,-604,-1244,-31,347,-129
928,2,2022-09-15T20:41:00.729315,250698,-5343,1181,-399,-1579,-604,-1244,-31,347,-129
929,2,2022-09-15T20:41:00.734887,250704,-5331,1179,-400,-1969,-356,-1146,-31,347,-129
930,2,2022-09-15T20:41:00.741479,250711,-5331,1179,-400,-1969,-356,-1146,-31,347,-129
931,2,2022-09-15T20:41:00.746843,250716,-5331,1179,-400,-1969,-356,-1146,-31,347,-129
932,2,2022-09-15T20:41:00.752329,250722,-5331,1179,-400,-1969,-356,-1146,-31,347,-129
933,2,2022-09-15T20:41:00.759524,250729,-5330,1174,-397,-2352,-95,-982,-31,347,-129
934,2,2022-09-15T20:41:00.768639,250737,-5330,1174,-397,-2352,-95,-982,-31,347,-129
935,2,2022-09-15T20:41:00.775091,250744,-5343,1180,-391,-2764,183,-828,-31,347,-129
936,2,2022-09-15T20:41:00.782291,250750,-5343,1180,-391,-2764,183,-828,-31,347,-129
937,2,2022-09-15T20:41:00.787878,250758,-5343,1180,-391,-2764,183,-828,-31,347,-129
938,2,2022-09-15T20:41:00.793379,250763,-5343,1180,-391,-2764,183,-828,-31,347,-129
939,2,2022-09-15T20:41:00.799384,250769,-5338,1189,-387,-3235,417,-617,-31,347,-129
940,2,2022-09-15T20:41:00.805910,250775,-5338,1189,-387,-3235,417,-617,-31,347,-129
941,2,2022-09-15T20:41:00.811475,250780,-5338,1189,-387,-3235,417,-617,-31,347,-129
942,2,2022-09-15T20:41:00.817877,250787,-5340,1219,-379,-3755,653,-402,-30,352,-120
943,2,2022-09-15T20:41:00.823290,250792,-5340,1219,-379,-3755,653,-402,-30,352,-120
944,2,2022-09-15T20:41:00.829652,250799,-5340,1219,-379,-3755,653,-402,-30,352,-120
945,2,2022-09-15T20:41:00.834633,250804,-5356,1209,-379,-4296,849,-228,-30,352,-120
946,2,2022-09-15T20:41:00.841027,250810,-5356,1209,-379,-4296,849,-228,-30,352,-120
947,2,2022-09-15T20:41:00.847663,250817,-5356,1209,-379,-4296,849,-228,-30,352,-120
948,2,2022-09-15T20:41:00.852991,250822,-5356,1209,-379,-4296,849,-228,-30,352,-120
949,2,2022-09-15T20:41:00.859243,250829,-5355,1176,-376,-4651,850,-59,-30,352,-120
950,2,2022-09-15T20:41:00.864665,250834,-5355,1176,-376,-4651,850,-59,-30,352,-120
951,2,2022-09-15T20:41:00.870085,250840,-5355,1176,-376,-4651,850,-59,-30,352,-120
952,2,2022-09-15T20:41:00.875151,250845,-5341,1169,-396,-4733,760,53,-30,352,-120
953,2,2022-09-15T20:41:00.881717,250851,-5341,1169,-396,-4733,760,53,-30,352,-120
954,2,2022-09-15T20:41:00.888243,250858,-5341,1169,-396,-4733,760,53,-30,352,-120
955,2,2022-09-15T20:41:00.893718,250863,-5341,1169,-396,-4733,760,53,-30,352,-120
956,2,2022-09-15T20:41:00.900548,250870,-5316,1178,-420,-4666,806,119,-30,352,-120
957,2,2022-09-15T20:41:00.905530,250874,-5316,1178,-420,-4666,806,119,-30,352,-120
958,2,2022-09-15T20:41:00.911063,250881,-5316,1178,-420,-4666,806,119,-30,352,-120
959,2,2022-09-15T20:41:00.917844,250887,-5298,1182,-450,-4454,982,279,-30,352,-120
960,2,2022-09-15T20:41:00.924948,250894,-5298,1182,-450,-4454,982,279,-30,352,-120
961,2,2022-09-15T20:41:00.931612,250901,-5298,1182,-450,-4454,982,279,-30,352,-120
962,2,2022-09-15T20:41:00.938200,250907,-5290,1164,-474,-4163,1300,400,-30,352,-120
963,2,2022-09-15T20:41:00.944401,250913,-5290,1164,-474,-4163,1300,400,-30,352,-120
964,2,2022-09-15T20:41:00.951250,250920,-5290,1164,-474,-4163,1300,400,-30,352,-120
965,2,2022-09-15T20:41:00.956528,250926,-5326,1130,-480,-3818,1652,308,-29,351,-115
966,2,2022-09-15T20:41:00.963104,250933,-5326,1130,-480,-3818,1652,308,-29,351,-115
967,2,2022-09-15T20:41:00.970769,250940,-5326,1130,-480,-3818,1652,308,-29,351,-115
968,2,2022-09-15T20:41:00.976646,250946,-5372,1095,-480,-3379,1824,23,-29,351,-115
969,2,2022-09-15T20:41:00.983606,250952,-5372,1095,-480,-3379,1824,23,-29,351,-115
970,2,2022-09-15T20:41:00.990620,250959,-5372,1095,-480,-3379,1824,23,-29,351,-115
971,2,2022-09-15T20:41:00.995840,250966,-5407,1083,-473,-2814,1657,-259,-29,351,-115
972,2,2022-09-15T20:41:01.002644,250972,-5407,1083,-473,-2814,1657,-259,-29,351,-115
973,2,2022-09-15T20:41:01.009007,250977,-5407,1083,-473,-2814,1657,-259,-29,351,-115
974,2,2022-09-15T20:41:01.015779,250985,-5408,1089,-460,-2170,1211,-469,-29,351,-115
975,2,2022-09-15T20:41:01.023443,250992,-5408,1089,-460,-2170,1211,-469,-29,351,-115
976,2,2022-09-15T20:41:01.031609,250999,-5408,1089,-460,-2170,1211,-469,-29,351,-115
977,2,2022-09-15T20:41:01.038094,251008,-5386,1105,-467,-1521,807,-610,-29,351,-115
978,2,2022-09-15T20:41:01.045858,251015,-5386,1105,-467,-1521,807,-610,-29,351,-115
979,2,2022-09-15T20:41:01.053490,251023,-5386,1105,-467,-1521,807,-610,-29,351,-115
980,2,2022-09-15T20:41:01.060617,251030,-5379,1117,-469,-978,627,-670,-29,351,-115
981,2,2022-09-15T20:41:01.073505,251042,-5379,1117,-469,-978,627,-670,-29,351,-115
982,2,2022-09-15T20:41:01.083956,251054,-5380,1123,-462,-531,596,-602,-23,359,-113
983,2,2022-09-15T20:41:01.092839,251061,-5380,1123,-462,-531,596,-602,-23,359,-113
984,2,2022-09-15T20:41:01.100778,251070,-5383,1117,-467,-127,521,-481,-23,359,-113
985,2,2022-09-15T20:41:01.112177,251081,-5383,1117,-467,-127,521,-481,-23,359,-113
986,2,2022-09-15T20:41:01.120313,251088,-5385,1124,-474,279,402,-289,-23,359,-113
987,2,2022-09-15T20:41:01.127769,251097,-5385,1124,-474,279,402,-289,-23,359,-113
988,2,2022-09-15T20:41:01.133132,251103,-5385,1124,-474,279,402,-289,-23,359,-113
989,2,2022-09-15T20:41:01.139402,251109,-5390,1121,-492,631,265,-121,-23,359,-113
990,2,2022-09-15T20:41:01.146897,251115,-5390,1121,-492,631,265,-121,-23,359,-113
991,2,2022-09-15T20:41:01.152574,251122,-5390,1121,-492,631,265,-121,-23,359,-113
992,2,2022-09-15T20:41:01.158648,251128,-5407,1097,-503,908,136,-139,-23,359,-113
993,2,2022-09-15T20:41:01.164638,251134,-5407,1097,-503,908,136,-139,-23,359,-113
994,2,2022-09-15T20:41:01.172540,251141,-5407,1097,-503,908,136,-139,-23,359,-113
995,2,2022-09-15T20:41:01.177781,251148,-5429,1073,-508,1215,11,-312,-23,359,-113
996,2,2022-09-15T20:41:01.184027,251153,-5429,1073,-508,1215,11,-312,-23,359,-113
997,2,2022-09-15T20:41:01.190172,251160,-5429,1073,-508,1215,11,-312,-23,359,-113
998,2,2022-09-15T20:41:01.195658,251165,-5428,1068,-502,1579,-181,-416,-26,352,-116
999,2,2022-09-15T20:41:01.203020,251172,-5428,1068,-502,1579,-181,-416,-26,352,-116
1000,2,2022-09-15T20:41:01.208658,251177,-5428,1068,-502,1579,-181,-416,-26,352,-116
1001,2,2022-09-15T20:41:01.214285,251184,-5428,1068,-502,1579,-181,-416,-26,352,-116
1002,2,2022-09-15T20:41:01.221138,251190,-5408,1073,-503,1928,-453,-421,-26,352,-116
1003,2,2022-09-15T20:41:01.227967,251197,-5408,1073,-503,1928,-453,-421,-26,352,-116
1004,2,2022-09-15T20:41:01.233285,251203,-5408,1073,-503,1928,-453,-421,-26,352,-116
1005,2,2022-09-15T20:41:01.239913,251209,-5385,1070,-501,2157,-701,-445,-26,352,-116
1006,2,2022-09-15T20:41:01.249550,251218,-5385,1070,-501,2157,-701,-445,-26,352,-116
1007,2,2022-09-15T20:41:01.255179,251225,-5401,1084,-496,2250,-824,-506,-26,352,-116
1008,2,2022-09-15T20:41:01.261872,251231,-5401,1084,-496,2250,-824,-506,-26,352,-116
1009,2,2022-09-15T20:41:01.268997,251238,-5401,1084,-496,2250,-824,-506,-26,352,-116
1010,2,2022-09-15T20:41:01.274914,251244,-5398,1102,-460,2225,-951,-416,-26,352,-116
1011,2,2022-09-15T20:41:01.282400,251251,-5398,1102,-460,2225,-951,-416,-26,352,-116
1012,2,2022-09-15T20:41:01.289547,251258,-5398,1102,-460,2225,-951,-416,-26,352,-116
1013,2,2022-09-15T20:41:01.296116,251265,-5362,1119,-451,2141,-1154,-201,-26,352,-116
1014,2,2022-09-15T20:41:01.307829,251276,-5362,1119,-451,2141,-1154,-201,-26,352,-116
1015,2,2022-09-15T20:41:01.313014,251282,-5362,1119,-451,2141,-1154,-201,-26,352,-116
1016,2,2022-09-15T20:41:01.319992,251289,-5337,1133,-443,2016,-1263,48,-27,347,-119
1017,2,2022-09-15T20:41:01.330915,251299,-5337,1133,-443,2016,-1263,48,-27,347,-119
1018,2,2022-09-15T20:41:01.336395,251305,-5343,1151,-442,1828,-1255,260,-27,347,-119
1019,2,2022-09-15T20:41:01.344044,251313,-5343,1151,-442,1828,-1255,260,-27,347,-119
1020,2,2022-09-15T20:41:01.354792,251324,-5341,1165,-448,1609,-1234,462,-27,347,-119
1021,2,2022-09-15T20:41:01.361986,251332,-5341,1165,-448,1609,-1234,462,-27,347,-119
1022,2,2022-09-15T20:41:01.370350,251337,-5341,1165,-448,1609,-1234,462,-27,347,-119
1023,2,2022-09-15T20:41:01.377529,251346,-5331,1193,-451,1356,-1196,653,-27,347,-119
1024,2,2022-09-15T20:41:01.384563,251354,-5331,1193,-451,1356,-1196,653,-27,347,-119
1025,2,2022-09-15T20:41:01.390709,251361,-5331,1193,-451,1356,-1196,653,-27,347,-119
1026,2,2022-09-15T20:41:01.398818,251366,-5339,1206,-447,1081,-1120,885,-27,347,-119
1027,2,2022-09-15T20:41:01.406749,251376,-5339,1206,-447,1081,-1120,885,-27,347,-119
1028,2,2022-09-15T20:41:01.413249,251383,-5339,1206,-447,1081,-1120,885,-27,347,-119
1029,2,2022-09-15T20:41:01.420443,251389,-5356,1216,-432,785,-1068,1006,-27,347,-119
1030,2,2022-09-15T20:41:01.432454,251401,-5356,1216,-432,785,-1068,1006,-27,347,-119
1031,2,2022-09-15T20:41:01.438168,251407,-5369,1211,-431,522,-1088,946,-26,352,-130
1032,2,2022-09-15T20:41:01.446287,251414,-5369,1211,-431,522,-1088,946,-26,352,-130
1033,2,2022-09-15T20:41:01.456780,251426,-5356,1208,-430,333,-1122,765,-26,352,-130
1034,2,2022-09-15T20:41:01.463374,251432,-5356,1208,-430,333,-1122,765,-26,352,-130
1035,2,2022-09-15T20:41:01.473773,251440,-5356,1208,-430,333,-1122,765,-26,352,-130
1036,2,2022-09-15T20:41:01.479843,251449,-5372,1202,-432,259,-1037,691,-26,352,-130
1037,2,2022-09-15T20:41:01.487203,251456,-5372,1202,-432,259,-1037,691,-26,352,-130
1038,2,2022-09-15T20:41:01.493057,251462,-5372,1202,-432,259,-1037,691,-26,352,-130
1039,2,2022-09-15T20:41:01.503960,251472,-5365,1195,-417,253,-923,533,-26,352,-130
1040,2,2022-09-15T20:41:01.509548,251479,-5365,1195,-417,253,-923,533,-26,352,-130
1041,2,2022-09-15T20:41:01.515056,251484,-5371,1192,-411,318,-777,365,-26,352,-130
1042,2,2022-09-15T20:41:01.523460,251491,-5371,1192,-411,318,-777,365,-26,352,-130
1043,2,2022-09-15T20:41:01.532303,251501,-5371,1192,-411,318,-777,365,-26,352,-130
1044,2,2022-09-15T20:41:01.538885,251508,-5381,1182,-417,406,-714,205,-26,352,-130
1045,2,2022-09-15T20:41:01.547749,251513,-5381,1182,-417,406,-714,205,-26,352,-130
1046,2,2022-09-15T20:41:01.556219,251526,-5351,1188,-413,513,-708,109,-26,352,-130
1047,2,2022-09-15T20:41:01.561406,251531,-5351,1188,-413,513,-708,109,-26,352,-130
1048,2,2022-09-15T20:41:01.569631,251538,-5351,1188,-413,513,-708,109,-26,352,-130
1049,2,2022-09-15T20:41:01.577164,251546,-5334,1196,-412,593,-593,94,-31,349,-115
1050,2,2022-09-15T20:41:01.585105,251554,-5334,1196,-412,593,-593,94,-31,349,-115
1051,2,2022-09-15T20:41:01.591448,251560,-5334,1196,-412,593,-593,94,-31,349,-115
1052,2,2022-09-15T20:41:01.597658,251567,-5331,1197,-426,562,-392,-79,-31,349,-115
1053,2,2022-09-15T20:41:01.607846,251577,-5331,1197,-426,562,-392,-79,-31,349,-115
1054,2,2022-09-15T20:41:01.614372,251584,-5331,1197,-426,562,-392,-79,-31,349,-115
1055,2,2022-09-15T20:41:01.621490,251590,-5339,1194,-425,445,-160,-290,-31,349,-115
1056,2,2022-09-15T20:41:01.632593,251601,-5339,1194,-425,445,-160,-290,-31,349,-115
1057,2,2022-09-15T20:41:01.637733,251608,-5340,1183,-432,409,-77,-294,-31,349,-115
1058,2,2022-09-15T20:41:01.645045,251614,-5340,1183,-432,409,-77,-294,-31,349,-115
1059,2,2022-09-15T20:41:01.657372,251627,-5332,1180,-444,463,-112,-145,-31,349,-115
1060,2,2022-09-15T20:41:01.665350,251635,-5332,1180,-444,463,-112,-145,-31,349,-115
1061,2,2022-09-15T20:41:01.673528,251642,-5332,1180,-444,463,-112,-145,-31,349,-115
1062,2,2022-09-15T20:41:01.682810,251652,-5338,1197,-458,512,-95,43,-31,349,-115
1063,2,2022-09-15T20:41:01.688721,251658,-5338,1197,-458,512,-95,43,-31,349,-115
1064,2,2022-09-15T20:41:01.695587,251664,-5338,1197,-458,512,-95,43,-31,349,-115
1065,2,2022-09-15T20:41:01.704782,251674,-5362,1203,-448,455,-61,85,-24,346,-130
1066,2,2022-09-15T20:41:01.711406,251681,-5362,1203,-448,455,-61,85,-24,346,-130
1067,2,2022-09-15T20:41:01.717694,251686,-5378,1202,-452,312,-124,-48,-24,346,-130
1068,2,2022-09-15T20:41:01.728092,251698,-5378,1202,-452,312,-124,-48,-24,346,-130
1069,2,2022-09-15T20:41:01.734779,251704,-5361,1191,-465,188,-217,-288,-24,346,-130
1070,2,2022-09-15T20:41:01.741250,251710,-5361,1191,-465,188,-217,-288,-24,346,-130
1071,2,2022-09-15T20:41:01.751575,251720,-5361,1191,-465,188,-217,-288,-24,346,-130
1072,2,2022-09-15T20:41:01.758293,251727,-5345,1187,-480,109,-150,-403,-24,346,-130
1073,2,2022-09-15T20:41:01.765513,251735,-5345,1187,-480,109,-150,-403,-24,346,-130
1074,2,2022-09-15T20:41:01.776115,251745,-5363,1172,-478,62,-24,-301,-24,346,-130
1075,2,2022-09-15T20:41:01.783101,251752,-5363,1172,-478,62,-24,-301,-24,346,-130
1076,2,2022-09-15T20:41:01.789921,251759,-5363,1172,-478,62,-24,-301,-24,346,-130
1077,2,2022-09-15T20:41:01.796850,251765,-5375,1171,-456,60,-133,-219,-24,346,-130
1078,2,2022-09-15T20:41:01.806376,251776,-5375,1171,-456,60,-133,-219,-24,346,-130
1079,2,2022-09-15T20:41:01.812780,251783,-5375,1171,-456,60,-133,-219,-24,346,-130
1080,2,2022-09-15T20:41:01.821776,251790,-5353,1208,-447,125,-398,-141,-29,361,-125
1081,2,2022-09-15T20:41:01.831414,251801,-5353,1208,-447,125,-398,-141,-29,361,-125
1082,2,2022-09-15T20:41:01.836782,251806,-5336,1231,-434,71,-469,-63,-29,361,-125
1083,2,2022-09-15T20:41:01.844917,251813,-5336,1231,-434,71,-469,-63,-29,361,-125
1084,2,2022-09-15T20:41:01.855203,251825,-5367,1220,-426,-32,-389,42,-29,361,-125
1085,2,2022-09-15T20:41:01.862021,251831,-5367,1220,-426,-32,-389,42,-29,361,-125
1086,2,2022-09-15T20:41:01.869728,251838,-5367,1220,-426,-32,-389,42,-29,361,-125
1087,2,2022-09-15T20:41:01.876035,251845,-5368,1220,-421,-104,-421,-78,-29,361,-125
1088,2,2022-09-15T20:41:01.884959,251854,-5368,1220,-421,-104,-421,-78,-29,361,-125
1089,2,2022-09-15T20:41:01.892820,251862,-5368,1220,-421,-104,-421,-78,-29,361,-125
1090,2,2022-09-15T20:41:01.902072,251872,-5368,1231,-408,-172,-430,-259,-29,361,-125
1091,2,2022-09-15T20:41:01.912074,251881,-5368,1231,-408,-172,-430,-259,-29,361,-125
1092,2,2022-09-15T20:41:01.917934,251887,-5349,1209,-425,-262,-369,-447,-29,361,-125
1093,2,2022-09-15T20:41:01.930295,251898,-5349,1209,-425,-262,-369,-447,-29,361,-125
1094,2,2022-09-15T20:41:01.937461,251907,-5350,1202,-424,-413,-130,-778,-32,348,-124
1095,2,2022-09-15T20:41:01.945589,251913,-5350,1202,-424,-413,-130,-778,-32,348,-124
1096,2,2022-09-15T20:41:01.954998,251923,-5350,1202,-424,-413,-130,-778,-32,348,-124
1097,2,2022-09-15T20:41:01.962378,251932,-5373,1204,-407,-577,228,-914,-32,348,-124
1098,2,2022-09-15T20:41:01.971060,251938,-5373,1204,-407,-577,228,-914,-32,348,-124
1099,2,2022-09-15T20:41:01.977784,251948,-5376,1184,-404,-734,321,-869,-32,348,-124
1100,2,2022-09-15T20:41:01.985765,251956,-5376,1184,-404,-734,321,-869,-32,348,-124
1101,2,2022-09-15T20:41:01.992910,251962,-5376,1184,-404,-734,321,-869,-32,348,-124
1102,2,2022-09-15T20:41:02.004540,251973,-5341,1196,-428,-926,252,-949,-32,348,-124
1103,2,2022-09-15T20:41:02.011262,251980,-5341,1196,-428,-926,252,-949,-32,348,-124
1104,2,2022-09-15T20:41:02.016934,251986,-5307,1217,-437,-1201,493,-908,-32,348,-124
1105,2,2022-09-15T20:41:02.025803,251995,-5307,1217,-437,-1201,493,-908,-32,348,-124
1106,2,2022-09-15T20:41:02.034227,252004,-5307,1217,-437,-1201,493,-908,-32,348,-124
1107,2,2022-09-15T20:41:02.041149,252010,-5330,1206,-435,-1516,866,-662,-32,348,-124
1108,2,2022-09-15T20:41:02.052579,252022,-5330,1206,-435,-1516,866,-662,-32,348,-124
1109,2,2022-09-15T20:41:02.060148,252029,-5376,1179,-428,-1754,927,-389,-28,352,-126
1110,2,2022-09-15T20:41:02.071248,252039,-5376,1179,-428,-1754,927,-389,-28,352,-126
1111,2,2022-09-15T20:41:02.076748,252046,-5363,1175,-423,-1832,691,-167,-28,352,-126
1112,2,2022-09-15T20:41:02.083365,252053,-5363,1175,-423,-1832,691,-167,-28,352,-126
1113,2,2022-09-15T20:41:02.089943,252059,-5363,1175,-423,-1832,691,-167,-28,352,-126
1114,2,2022-09-15T20:41:02.097021,252065,-5337,1167,-429,-1782,527,94,-28,352,-126
1115,2,2022-09-15T20:41:02.106018,252075,-5337,1167,-429,-1782,527,94,-28,352,-126
1116,2,2022-09-15T20:41:02.112644,252082,-5337,1167,-429,-1782,527,94,-28,352,-126
1117,2,2022-09-15T20:41:02.120908,252090,-5339,1162,-433,-1633,584,146,-28,352,-126
1118,2,2022-09-15T20:41:02.129022,252098,-5339,1162,-433,-1633,584,146,-28,352,-126
1119,2,2022-09-15T20:41:02.134777,252104,-5339,1162,-433,-1633,584,146,-28,352,-126
1120,2,2022-09-15T20:41:02.141379,252111,-5328,1165,-449,-1477,729,-69,-28,352,-126
1121,2,2022-09-15T20:41:02.151762,252121,-5328,1165,-449,-1477,729,-69,-28,352,-126
1122,2,2022-09-15T20:41:02.157073,252127,-5310,1171,-463,-1397,1063,-334,-28,352,-126
1123,2,2022-09-15T20:41:02.163822,252133,-5310,1171,-463,-1397,1063,-334,-28,352,-126
1124,2,2022-09-15T20:41:02.171452,252140,-5310,1171,-463,-1397,1063,-334,-28,352,-126
1125,2,2022-09-15T20:41:02.178831,252148,-5383,1136,-474,-1331,1369,-480,-28,352,-126
1126,2,2022-09-15T20:41:02.184952,252153,-5383,1136,-474,-1331,1369,-480,-28,352,-126
1127,2,2022-09-15T20:41:02.191669,252161,-5383,1136,-474,-1331,1369,-480,-28,352,-126
1128,2,2022-09-15T20:41:02.199322,252168,-5422,1088,-483,-1213,1402,-598,-23,349,-125
1129,2,2022-09-15T20:41:02.207063,252176,-5422,1088,-483,-1213,1402,-598,-23,349,-125
1130,2,2022-09-15T20:41:02.214665,252184,-5422,1088,-483,-1213,1402,-598,-23,349,-125
1131,2,2022-09-15T20:41:02.221669,252189,-5448,1060,-486,-975,1370,-793,-23,349,-125
1132,2,2022-09-15T20:41:02.228242,252197,-5448,1060,-486,-975,1370,-793,-23,349,-125
1133,2,2022-09-15T20:41:02.236346,252206,-5460,1033,-476,-667,1123,-1106,-23,349,-125
1134,2,2022-09-15T20:41:02.312424,252213,-5460,1033,-476,-667,1123,-1106,-23,349,-125
1135,2,2022-09-15T20:41:02.319973,252289,-5319,1099,-502,588,814,-969,-25,355,-129
1136,2,2022-09-15T20:41:02.334561,252303,-5319,1099,-502,588,814,-969,-25,355,-129
1137,2,2022-09-15T20:41:02.343673,252312,-5363,1133,-506,526,1029,-685,-25,355,-129
1138,2,2022-09-15T20:41:02.355018,252324,-5363,1133,-506,526,1029,-685,-25,355,-129
1139,2,2022-09-15T20:41:02.362781,252332,-5374,1155,-513,292,978,-414,-25,355,-129
1140,2,2022-09-15T20:41:02.372277,252339,-5374,1155,-513,292,978,-414,-25,355,-129
1141,2,2022-09-15T20:41:02.379906,252349,-5412,1143,-517,35,756,-86,-25,355,-129
1142,2,2022-09-15T20:41:02.389090,252358,-5412,1143,-517,35,756,-86,-25,355,-129
1143,2,2022-09-15T20:41:02.396284,252364,-5412,1143,-517,35,756,-86,-25,355,-129
1144,2,2022-09-15T20:41:02.405583,252375,-5374,1140,-538,-186,484,-2,-25,355,-129
1145,2,2022-09-15T20:41:02.414236,252384,-5374,1140,-538,-186,484,-2,-25,355,-129
1146,2,2022-09-15T20:41:02.423441,252391,-5356,1144,-556,-339,602,-16,-25,355,-129
1147,2,2022-09-15T20:41:02.431241,252400,-5356,1144,-556,-339,602,-16,-25,355,-129
1148,2,2022-09-15T20:41:02.437539,252406,-5381,1134,-563,-425,863,-56,-29,357,-127
1149,2,2022-09-15T20:41:02.445594,252413,-5381,1134,-563,-425,863,-56,-29,357,-127
1150,2,2022-09-15T20:41:02.451011,252421,-5381,1134,-563,-425,863,-56,-29,357,-127
1151,2,2022-09-15T20:41:02.456610,252426,-5414,1126,-583,-435,918,-228,-29,357,-127
1152,2,2022-09-15T20:41:02.466968,252436,-5414,1126,-583,-435,918,-228,-29,357,-127
1153,2,2022-09-15T20:41:02.473975,252443,-5414,1126,-583,-435,918,-228,-29,357,-127
1154,2,2022-09-15T20:41:02.481290,252450,-5378,1154,-586,-463,949,-368,-29,357,-127
1155,2,2022-09-15T20:41:02.490180,252460,-5378,1154,-586,-463,949,-368,-29,357,-127
1156,2,2022-09-15T20:41:02.496005,252465,-5421,1136,-577,-519,925,-269,-29,357,-127
1157,2,2022-09-15T20:41:02.503236,252473,-5421,1136,-577,-519,925,-269,-29,357,-127
1158,2,2022-09-15T20:41:02.509188,252478,-5421,1136,-577,-519,925,-269,-29,357,-127
1159,2,2022-09-15T20:41:02.514829,252484,-5421,1136,-577,-519,925,-269,-29,357,-127
1160,2,2022-09-15T20:41:02.522759,252490,-5467,1079,-563,-620,540,-453,-29,357,-127
1161,2,2022-09-15T20:41:02.533221,252503,-5467,1079,-563,-620,540,-453,-29,357,-127
1162,2,2022-09-15T20:41:02.539530,252510,-5512,1026,-542,-589,73,-821,-29,357,-127
1163,2,2022-09-15T20:41:02.550268,252519,-5512,1026,-542,-589,73,-821,-29,357,-127
1164,2,2022-09-15T20:41:02.556322,252526,-5499,995,-539,-367,-422,-1008,-21,357,-125
1165,2,2022-09-15T20:41:02.563181,252532,-5499,995,-539,-367,-422,-1008,-21,357,-125
1166,2,2022-09-15T20:41:02.570832,252539,-5499,995,-539,-367,-422,-1008,-21,357,-125
1167,2,2022-09-15T20:41:02.577413,252547,-5329,1066,-573,-58,-705,-1032,-21,357,-125
1168,2,2022-09-15T20:41:02.584953,252554,-5329,1066,-573,-58,-705,-1032,-21,357,-125
1169,2,2022-09-15T20:41:02.592036,252562,-5329,1066,-573,-58,-705,-1032,-21,357,-125
1170,2,2022-09-15T20:41:02.598679,252568,-5206,1199,-614,67,-152,-538,-21,357,-125
1171,2,2022-09-15T20:41:02.608742,252578,-5206,1199,-614,67,-152,-538,-21,357,-125
1172,2,2022-09-15T20:41:02.615091,252584,-5206,1199,-614,67,-152,-538,-21,357,-125
1173,2,2022-09-15T20:41:02.624393,252593,-5275,1238,-618,-239,849,353,-21,357,-125
1174,2,2022-09-15T20:41:02.634088,252604,-5275,1238,-618,-239,849,353,-21,357,-125
1175,2,2022-09-15T20:41:02.640758,252610,-5379,1170,-572,-707,1117,834,-21,357,-125
1176,2,2022-09-15T20:41:02.649562,252618,-5379,1170,-572,-707,1117,834,-21,357,-125
1177,2,2022-09-15T20:41:02.657680,252626,-5495,1050,-556,-886,476,576,-21,357,-125
1178,2,2022-09-15T20:41:02.663282,252633,-5495,1050,-556,-886,476,576,-21,357,-125
1179,2,2022-09-15T20:41:02.670860,252638,-5495,1050,-556,-886,476,576,-21,357,-125
1180,2,2022-09-15T20:41:02.677545,252647,-5569,899,-545,-713,-349,-469,-22,348,-136
1181,2,2022-09-15T20:41:02.685878,252655,-5569,899,-545,-713,-349,-469,-22,348,-136
1182,2,2022-09-15T20:41:02.692134,252661,-5569,899,-545,-713,-349,-469,-22,348,-136
1183,2,2022-09-15T20:41:02.700236,252668,-5552,855,-540,-215,-741,-1710,-22,348,-136
1184,2,2022-09-15T20:41:02.709247,252679,-5552,855,-540,-215,-741,-1710,-22,348,-136
1185,2,2022-09-15T20:41:02.714183,252684,-5552,855,-540,-215,-741,-1710,-22,348,-136
1186,2,2022-09-15T20:41:02.722004,252691,-5334,927,-572,424,-722,-2244,-22,348,-136
1187,2,2022-09-15T20:41:02.731047,252699,-5334,927,-572,424,-722,-2244,-22,348,-136
1188,2,2022-09-15T20:41:02.737364,252707,-5171,1084,-616,898,29,-1584,-22,348,-136
1189,2,2022-09-15T20:41:02.744275,252712,-5171,1084,-616,898,29,-1584,-22,348,-136
1190,2,2022-09-15T20:41:02.753514,252723,-5171,1084,-616,898,29,-1584,-22,348,-136
1191,2,2022-09-15T20:41:02.760329,252730,-5307,1156,-597,902,1013,-133,-22,348,-136
1192,2,2022-09-15T20:41:02.768723,252736,-5307,1156,-597,902,1013,-133,-22,348,-136
1193,2,2022-09-15T20:41:02.776101,252745,-5365,1168,-576,565,866,1096,-22,348,-136
1194,2,2022-09-15T20:41:02.783150,252753,-5365,1168,-576,565,866,1096,-22,348,-136
1195,2,2022-09-15T20:41:02.790060,252760,-5365,1168,-576,565,866,1096,-22,348,-136
1196,2,2022-09-15T20:41:02.797008,252766,-5419,1152,-549,282,146,1888,-22,348,-136
1197,2,2022-09-15T20:41:02.807560,252777,-5419,1152,-549,282,146,1888,-22,348,-136
1198,2,2022-09-15T20:41:02.813560,252782,-5419,1152,-549,282,146,1888,-22,348,-136
1199,2,2022-09-15T20:41:02.820126,252789,-5468,1084,-548,87,-479,1949,-18,350,-134
1200,2,2022-09-15T20:41:02.828340,252797,-5468,1084,-548,87,-479,1949,-18,350,-134
1201,2,2022-09-15T20:41:02.834108,252804,-5468,1084,-548,87,-479,1949,-18,350,-134
1202,2,2022-09-15T20:41:02.842006,252812,-5551,1024,-548,24,-636,1269,-18,350,-134
1203,2,2022-09-15T20:41:02.851604,252821,-5551,1024,-548,24,-636,1269,-18,350,-134
1204,2,2022-09-15T20:41:02.857382,252827,-5469,1042,-576,89,-450,406,-18,350,-134
1205,2,2022-09-15T20:41:02.865587,252834,-5469,1042,-576,89,-450,406,-18,350,-134
1206,2,2022-09-15T20:41:02.873132,252840,-5469,1042,-576,89,-450,406,-18,350,-134
1207,2,2022-09-15T20:41:02.879267,252849,-5302,1170,-592,219,-146,130,-18,350,-134
1208,2,2022-09-15T20:41:02.886346,252856,-5302,1170,-592,219,-146,130,-18,350,-134
1209,2,2022-09-15T20:41:02.892222,252861,-5302,1170,-592,219,-146,130,-18,350,-134
1210,2,2022-09-15T20:41:02.900959,252870,-5218,1264,-581,217,69,882,-18,350,-134
1211,2,2022-09-15T20:41:02.909668,252878,-5218,1264,-581,217,69,882,-18,350,-134
1212,2,2022-09-15T20:41:02.914718,252884,-5218,1264,-581,217,69,882,-18,350,-134
1213,2,2022-09-15T20:41:02.922189,252891,-5325,1183,-539,89,-85,2009,-18,350,-134
1214,2,2022-09-15T20:41:02.932235,252901,-5325,1183,-539,89,-85,2009,-18,350,-134
1215,2,2022-09-15T20:41:02.937963,252907,-5487,1053,-518,-99,-539,1842,-29,347,-135
1216,2,2022-09-15T20:41:02.946222,252914,-5487,1053,-518,-99,-539,1842,-29,347,-135
1217,2,2022-09-15T20:41:02.956275,252925,-5486,1021,-516,-183,-901,793,-29,347,-135
1218,2,2022-09-15T20:41:02.963164,252933,-5486,1021,-516,-183,-901,793,-29,347,-135
1219,2,2022-09-15T20:41:02.969054,252938,-5486,1021,-516,-183,-901,793,-29,347,-135
1220,2,2022-09-15T20:41:02.977426,252947,-5470,1012,-512,-174,-894,179,-29,347,-135
1221,2,2022-09-15T20:41:02.984380,252954,-5470,1012,-512,-174,-894,179,-29,347,-135
1222,2,2022-09-15T20:41:02.990714,252960,-5470,1012,-512,-174,-894,179,-29,347,-135
1223,2,2022-09-15T20:41:02.996718,252965,-5288,1108,-550,-143,-824,-130,-29,347,-135
1224,2,2022-09-15T20:41:03.008308,252978,-5288,1108,-550,-143,-824,-130,-29,347,-135
1225,2,2022-09-15T20:41:03.015016,252985,-5288,1108,-550,-143,-824,-130,-29,347,-135
1226,2,2022-09-15T20:41:03.022319,252991,-5066,1283,-613,-165,-220,599,-29,347,-135
1227,2,2022-09-15T20:41:03.032752,253002,-5066,1283,-613,-165,-220,599,-29,347,-135
1228,2,2022-09-15T20:41:03.037729,253007,-5129,1379,-653,-454,783,2230,-29,347,-135
1229,2,2022-09-15T20:41:03.047079,253014,-5129,1379,-653,-454,783,2230,-29,347,-135
1230,2,2022-09-15T20:41:03.056818,253026,-5351,1301,-640,-808,1144,3550,-21,351,-137
1231,2,2022-09-15T20:41:03.063790,253033,-5351,1301,-640,-808,1144,3550,-21,351,-137
1232,2,2022-09-15T20:41:03.072520,253040,-5351,1301,-640,-808,1144,3550,-21,351,-137
1233,2,2022-09-15T20:41:03.080537,253049,-5527,1204,-596,-874,630,3434,-21,351,-137
1234,2,2022-09-15T20:41:03.085742,253056,-5527,1204,-596,-874,630,3434,-21,351,-137
1235,2,2022-09-15T20:41:03.091360,253061,-5527,1204,-596,-874,630,3434,-21,351,-137
1236,2,2022-09-15T20:41:03.099315,253068,-5548,1162,-573,-541,-249,2447,-21,351,-137
1237,2,2022-09-15T20:41:03.106236,253076,-5548,1162,-573,-541,-249,2447,-21,351,-137
1238,2,2022-09-15T20:41:03.113238,253082,-5548,1162,-573,-541,-249,2447,-21,351,-137
1239,2,2022-09-15T20:41:03.120972,253089,-5514,1152,-551,-4,-845,1466,-21,351,-137
1240,2,2022-09-15T20:41:03.129546,253100,-5514,1152,-551,-4,-845,1466,-21,351,-137
1241,2,2022-09-15T20:41:03.135984,253106,-5514,1152,-551,-4,-845,1466,-21,351,-137
1242,2,2022-09-15T20:41:03.143851,253113,-5452,1158,-535,524,-1011,827,-21,351,-137
1243,2,2022-09-15T20:41:03.156313,253126,-5419,1173,-550,881,-797,468,-21,351,-137
1244,2,2022-09-15T20:41:03.162941,253132,-5419,1173,-550,881,-797,468,-21,351,-137
1245,2,2022-09-15T20:41:03.170269,253138,-5419,1173,-550,881,-797,468,-21,351,-137
1246,2,2022-09-15T20:41:03.179166,253148,-5357,1199,-573,938,-446,135,-25,343,-129
1247,2,2022-09-15T20:41:03.186264,253156,-5357,1199,-573,938,-446,135,-25,343,-129
1248,2,2022-09-15T20:41:03.193193,253162,-5357,1199,-573,938,-446,135,-25,343,-129
1249,2,2022-09-15T20:41:03.201536,253170,-5333,1223,-582,700,-15,-167,-25,343,-129
1250,2,2022-09-15T20:41:03.213064,253182,-5333,1223,-582,700,-15,-167,-25,343,-129
1251,2,2022-09-15T20:41:03.218983,253188,-5359,1206,-602,322,244,-382,-25,343,-129
1252,2,2022-09-15T20:41:03.230744,253199,-5359,1206,-602,322,244,-382,-25,343,-129
1253,2,2022-09-15T20:41:03.237414,253207,-5347,1207,-609,-77,195,-517,-25,343,-129
1254,2,2022-09-15T20:41:03.245189,253213,-5347,1207,-609,-77,195,-517,-25,343,-129
1255,2,2022-09-15T20:41:03.258058,253228,-5371,1182,-607,-365,23,-359,-25,343,-129
1256,2,2022-09-15T20:41:03.264383,253234,-5371,1182,-607,-365,23,-359,-25,343,-129
1257,2,2022-09-15T20:41:03.270981,253240,-5371,1182,-607,-365,23,-359,-25,343,-129
1258,2,2022-09-15T20:41:03.276754,253246,-5374,1170,-603,-390,-310,-244,-25,343,-129
1259,2,2022-09-15T20:41:03.284214,253254,-5374,1170,-603,-390,-310,-244,-25,343,-129
1260,2,2022-09-15T20:41:03.290462,253260,-5374,1170,-603,-390,-310,-244,-25,343,-129
1261,2,2022-09-15T20:41:03.296047,253265,-5374,1170,-603,-390,-310,-244,-25,343,-129
1262,2,2022-09-15T20:41:03.304331,253274,-5339,1161,-610,-205,-494,-345,-29,349,-139
1263,2,2022-09-15T20:41:03.311689,253282,-5339,1161,-610,-205,-494,-345,-29,349,-139
1264,2,2022-09-15T20:41:03.316746,253287,-5327,1187,-600,27,-364,-686,-29,349,-139
1265,2,2022-09-15T20:41:03.348431,253318,-5398,1191,-596,200,-194,-858,-29,349,-139
1266,2,2022-09-15T20:41:03.358620,253328,-5380,1202,-580,307,-405,-841,-29,349,-139
1267,2,2022-09-15T20:41:03.365439,253335,-5380,1202,-580,307,-405,-841,-29,349,-139
1268,2,2022-09-15T20:41:03.372591,253341,-5380,1202,-580,307,-405,-841,-29,349,-139
1269,2,2022-09-15T20:41:03.380681,253350,-5335,1202,-587,456,-737,-632,-29,349,-139
1270,2,2022-09-15T20:41:03.389051,253359,-5335,1202,-587,456,-737,-632,-29,349,-139
1271,2,2022-09-15T20:41:03.395124,253364,-5335,1202,-587,456,-737,-632,-29,349,-139
1272,2,2022-09-15T20:41:03.403756,253373,-5265,1232,-591,560,-804,-570,-29,349,-139
1273,2,2022-09-15T20:41:03.412520,253381,-5265,1232,-591,560,-804,-570,-29,349,-139
1274,2,2022-09-15T20:41:03.418674,253387,-5299,1264,-596,486,-414,-537,-29,349,-139
1275,2,2022-09-15T20:41:03.430178,253400,-5299,1264,-596,486,-414,-537,-29,349,-139
1276,2,2022-09-15T20:41:03.436743,253407,-5380,1253,-588,201,-94,-855,-38,356,-144
1277,2,2022-09-15T20:41:03.445452,253414,-5380,1253,-588,201,-94,-855,-38,356,-144
1278,2,2022-09-15T20:41:03.451447,253421,-5380,1253,-588,201,-94,-855,-38,356,-144
1279,2,2022-09-15T20:41:03.456721,253426,-5401,1260,-585,-89,-74,-1534,-38,356,-144
1280,2,2022-09-15T20:41:03.463470,253432,-5401,1260,-585,-89,-74,-1534,-38,356,-144
1281,2,2022-09-15T20:41:03.472014,253440,-5401,1260,-585,-89,-74,-1534,-38,356,-144
1282,2,2022-09-15T20:41:03.481891,253452,-5412,1228,-567,-218,-312,-1893,-38,356,-144
1283,2,2022-09-15T20:41:03.492397,253462,-5412,1228,-567,-218,-312,-1893,-38,356,-144
1284,2,2022-09-15T20:41:03.499504,253468,-5416,1143,-571,-96,-765,-1993,-38,356,-144
1285,2,2022-09-15T20:41:03.508513,253477,-5416,1143,-571,-96,-765,-1993,-38,356,-144
1286,2,2022-09-15T20:41:03.514848,253485,-5416,1143,-571,-96,-765,-1993,-38,356,-144
1287,2,2022-09-15T20:41:03.521694,253491,-5428,1078,-556,78,-998,-2653,-38,356,-144
1288,2,2022-09-15T20:41:03.531561,253501,-5428,1078,-556,78,-998,-2653,-38,356,-144
1289,2,2022-09-15T20:41:03.537519,253507,-5356,1060,-552,243,-790,-3647,-38,356,-144
1290,2,2022-09-15T20:41:03.546281,253514,-5356,1060,-552,243,-790,-3647,-38,356,-144
1291,2,2022-09-15T20:41:03.555032,253524,-5356,1060,-552,243,-790,-3647,-38,356,-144
1292,2,2022-09-15T20:41:03.562078,253532,-5301,1066,-553,395,-474,-4168,-29,359,-139
1293,2,2022-09-15T20:41:03.568790,253538,-5301,1066,-553,395,-474,-4168,-29,359,-139
1294,2,2022-09-15T20:41:03.576558,253546,-5301,1066,-553,395,-474,-4168,-29,359,-139
1295,2,2022-09-15T20:41:03.584697,253554,-5339,1034,-557,464,-90,-4167,-29,359,-139
1296,2,2022-09-15T20:41:03.594065,253562,-5339,1034,-557,464,-90,-4167,-29,359,-139
1297,2,2022-09-15T20:41:03.601909,253571,-5364,992,-551,374,158,-4208,-29,359,-139
1298,2,2022-09-15T20:41:03.611480,253581,-5364,992,-551,374,158,-4208,-29,359,-139
1299,2,2022-09-15T20:41:03.616841,253586,-5364,978,-556,223,110,-4040,-29,359,-139
1300,2,2022-09-15T20:41:03.629390,253598,-5364,978,-556,223,110,-4040,-29,359,-139
1301,2,2022-09-15T20:41:03.638005,253607,-5351,980,-555,119,-70,-3329,-29,359,-139
1302,2,2022-09-15T20:41:03.645333,253614,-5351,980,-555,119,-70,-3329,-29,359,-139
1303,2,2022-09-15T20:41:03.652436,253622,-5351,980,-555,119,-70,-3329,-29,359,-139
1304,2,2022-09-15T20:41:03.657912,253627,-5322,1010,-562,189,-264,-2090,-29,359,-139
1305,2,2022-09-15T20:41:03.664729,253634,-5322,1010,-562,189,-264,-2090,-29,359,-139
1306,2,2022-09-15T20:41:03.671400,253640,-5322,1010,-562,189,-264,-2090,-29,359,-139
1307,2,2022-09-15T20:41:03.676906,253646,-5310,1023,-570,371,-344,-479,-14,358,-136
1308,2,2022-09-15T20:41:03.683952,253654,-5310,1023,-570,371,-344,-479,-14,358,-136
1309,2,2022-09-15T20:41:03.690130,253659,-5310,1023,-570,371,-344,-479,-14,358,-136
1310,2,2022-09-15T20:41:03.695813,253665,-5310,1023,-570,371,-344,-479,-14,358,-136
1311,2,2022-09-15T20:41:03.703951,253673,-5297,1074,-569,492,-345,1026,-14,358,-136
1312,2,2022-09-15T20:41:03.710450,253680,-5297,1074,-569,492,-345,1026,-14,358,-136
1313,2,2022-09-15T20:41:03.715883,253685,-5297,1074,-569,492,-345,1026,-14,358,-136
1314,2,2022-09-15T20:41:03.721679,253690,-5286,1125,-581,507,-247,2422,-14,358,-136
1315,2,2022-09-15T20:41:03.730164,253700,-5286,1125,-581,507,-247,2422,-14,358,-136
1316,2,2022-09-15T20:41:03.736849,253706,-5286,1125,-581,507,-247,2422,-14,358,-136
1317,2,2022-09-15T20:41:03.745155,253714,-5308,1133,-598,490,-153,3637,-14,358,-136
1318,2,2022-09-15T20:41:03.755443,253725,-5308,1133,-598,490,-153,3637,-14,358,-136
1319,2,2022-09-15T20:41:03.762172,253731,-5283,1129,-631,599,-57,4472,-14,358,-136
1320,2,2022-09-15T20:41:03.770946,253739,-5283,1129,-631,599,-57,4472,-14,358,-136
1321,2,2022-09-15T20:41:03.779429,253749,-5334,1161,-607,688,178,4618,-14,358,-136
1322,2,2022-09-15T20:41:03.784872,253754,-5334,1161,-607,688,178,4618,-14,358,-136
1323,2,2022-09-15T20:41:03.790592,253760,-5334,1161,-607,688,178,4618,-14,358,-136
1324,2,2022-09-15T20:41:03.798866,253765,-5334,1161,-607,688,178,4618,-14,358,-136
1325,2,2022-09-15T20:41:03.807687,253776,-5460,1183,-623,802,241,4609,-27,355,-141
1326,2,2022-09-15T20:41:03.813849,253783,-5460,1183,-623,802,241,4609,-27,355,-141
1327,2,2022-09-15T20:41:03.821158,253789,-5484,1251,-658,922,-39,4338,-27,355,-141
1328,2,2022-09-15T20:41:03.832242,253801,-5484,1251,-658,922,-39,4338,-27,355,-141
1329,2,2022-09-15T20:41:03.839904,253809,-5478,1277,-637,992,-173,4158,-27,355,-141
1330,2,2022-09-15T20:41:03.849732,253819,-5478,1277,-637,992,-173,4158,-27,355,-141
1331,2,2022-09-15T20:41:03.856282,253826,-5478,1277,-637,992,-173,4158,-27,355,-141
1332,2,2022-09-15T20:41:03.862809,253833,-5452,1258,-622,893,-288,3785,-27,355,-141
1333,2,2022-09-15T20:41:03.870010,253840,-5452,1258,-622,893,-288,3785,-27,355,-141
1334,2,2022-09-15T20:41:03.875363,253845,-5452,1258,-622,893,-288,3785,-27,355,-141
1335,2,2022-09-15T20:41:03.882452,253852,-5399,1255,-620,846,-420,3383,-27,355,-141
1336,2,2022-09-15T20:41:03.892230,253861,-5399,1255,-620,846,-420,3383,-27,355,-141
1337,2,2022-09-15T20:41:03.898871,253868,-5373,1275,-619,843,-358,3039,-27,355,-141
1338,2,2022-09-15T20:41:03.906226,253876,-5373,1275,-619,843,-358,3039,-27,355,-141
1339,2,2022-09-15T20:41:03.913730,253883,-5373,1275,-619,843,-358,3039,-27,355,-141
1340,2,2022-09-15T20:41:03.919410,253889,-5401,1269,-614,809,-217,2848,-37,345,-141
1341,2,2022-09-15T20:41:03.928874,253897,-5401,1269,-614,809,-217,2848,-37,345,-141
1342,2,2022-09-15T20:41:03.937437,253906,-5373,1290,-589,661,-339,2483,-37,345,-141
1343,2,2022-09-15T20:41:03.944775,253914,-5373,1290,-589,661,-339,2483,-37,345,-141
1344,2,2022-09-15T20:41:03.950330,253920,-5373,1290,-589,661,-339,2483,-37,345,-141
1345,2,2022-09-15T20:41:03.955724,253926,-5373,1290,-589,661,-339,2483,-37,345,-141
1346,2,2022-09-15T20:41:03.961848,253932,-5394,1295,-577,431,-233,2102,-37,345,-141
1347,2,2022-09-15T20:41:03.969806,253939,-5394,1295,-577,431,-233,2102,-37,345,-141
1348,2,2022-09-15T20:41:03.975622,253944,-5394,1295,-577,431,-233,2102,-37,345,-141
1349,2,2022-09-15T20:41:03.984199,253954,-5392,1305,-568,47,-307,1419,-37,345,-141
1350,2,2022-09-15T20:41:03.991218,253961,-5392,1305,-568,47,-307,1419,-37,345,-141
1351,2,2022-09-15T20:41:03.997979,253966,-5392,1305,-568,47,-307,1419,-37,345,-141
1352,2,2022-09-15T20:41:04.005624,253975,-5370,1282,-563,-241,-431,985,-37,345,-141
1353,2,2022-09-15T20:41:04.012289,253981,-5370,1282,-563,-241,-431,985,-37,345,-141
1354,2,2022-09-15T20:41:04.018448,253987,-5319,1294,-552,-430,-534,656,-37,345,-141
1355,2,2022-09-15T20:41:04.027244,253997,-5319,1294,-552,-430,-534,656,-37,345,-141
1356,2,2022-09-15T20:41:04.035479,254005,-5319,1294,-552,-430,-534,656,-37,345,-141
1357,2,2022-09-15T20:41:04.043824,254012,-5360,1249,-579,-429,-646,668,-37,345,-141
1358,2,2022-09-15T20:41:04.051186,254020,-5360,1249,-579,-429,-646,668,-37,345,-141
1359,2,2022-09-15T20:41:04.057278,254026,-5257,1279,-575,-497,-716,537,-35,341,-145
1360,2,2022-09-15T20:41:04.063702,254033,-5257,1279,-575,-497,-716,537,-35,341,-145
1361,2,2022-09-15T20:41:04.069376,254039,-5257,1279,-575,-497,-716,537,-35,341,-145
1362,2,2022-09-15T20:41:04.074745,254045,-5257,1279,-575,-497,-716,537,-35,341,-145
1363,2,2022-09-15T20:41:04.080096,254050,-5259,1246,-558,-449,-520,695,-35,341,-145
1364,2,2022-09-15T20:41:04.088347,254058,-5259,1246,-558,-449,-520,695,-35,341,-145
1365,2,2022-09-15T20:41:04.098964,254066,-5259,1246,-558,-449,-520,695,-35,341,-145
1366,2,2022-09-15T20:41:04.105688,254075,-5257,1256,-558,-342,-355,581,-35,341,-145
1367,2,2022-09-15T20:41:04.112359,254082,-5257,1256,-558,-342,-355,581,-35,341,-145
1368,2,2022-09-15T20:41:04.118777,254088,-5247,1303,-537,-173,-563,425,-35,341,-145
1369,2,2022-09-15T20:41:04.127329,254097,-5247,1303,-537,-173,-563,425,-35,341,-145
1370,2,2022-09-15T20:41:04.134711,254104,-5247,1303,-537,-173,-563,425,-35,341,-145
1371,2,2022-09-15T20:41:04.139713,254109,-5192,1338,-560,-69,-654,645,-35,341,-145
1372,2,2022-09-15T20:41:04.146715,254115,-5192,1338,-560,-69,-654,645,-35,341,-145
1373,2,2022-09-15T20:41:04.156564,254126,-5192,1338,-560,-69,-654,645,-35,341,-145
1374,2,2022-09-15T20:41:04.163110,254133,-5185,1348,-568,-83,-260,1199,-35,341,-145
1375,2,2022-09-15T20:41:04.171713,254141,-5185,1348,-568,-83,-260,1199,-35,341,-145
1376,2,2022-09-15T20:41:04.179430,254148,-5229,1335,-583,-149,206,1814,-43,339,-129
1377,2,2022-09-15T20:41:04.189101,254158,-5229,1335,-583,-149,206,1814,-43,339,-129
1378,2,2022-09-15T20:41:04.196680,254164,-5229,1335,-583,-149,206,1814,-43,339,-129
1379,2,2022-09-15T20:41:04.202929,254172,-5299,1323,-593,-164,392,2197,-43,339,-129
1380,2,2022-09-15T20:41:04.213345,254183,-5299,1323,-593,-164,392,2197,-43,339,-129
1381,2,2022-09-15T20:41:04.219290,254188,-5316,1351,-597,-236,307,2043,-43,339,-129
1382,2,2022-09-15T20:41:04.231692,254201,-5316,1351,-597,-236,307,2043,-43,339,-129
1383,2,2022-09-15T20:41:04.238055,254208,-5299,1333,-593,-284,94,1833,-43,339,-129
1384,2,2022-09-15T20:41:04.245151,254214,-5299,1333,-593,-284,94,1833,-43,339,-129
1385,2,2022-09-15T20:41:04.256203,254226,-5299,1333,-593,-284,94,1833,-43,339,-129
1386,2,2022-09-15T20:41:04.265648,254235,-5232,1350,-606,-354,211,1821,-43,339,-129
1387,2,2022-09-15T20:41:04.272623,254241,-5232,1350,-606,-354,211,1821,-43,339,-129
1388,2,2022-09-15T20:41:04.278364,254248,-5200,1342,-609,-427,324,2180,-43,339,-129
1389,2,2022-09-15T20:41:04.284710,254255,-5200,1342,-609,-427,324,2180,-43,339,-129
1390,2,2022-09-15T20:41:04.291685,254261,-5200,1342,-609,-427,324,2180,-43,339,-129
1391,2,2022-09-15T20:41:04.297928,254268,-5252,1317,-598,-401,424,2796,-49,333,-139
1392,2,2022-09-15T20:41:04.302998,254272,-5252,1317,-598,-401,424,2796,-49,333,-139
1393,2,2022-09-15T20:41:04.311362,254280,-5252,1317,-598,-401,424,2796,-49,333,-139
1394,2,2022-09-15T20:41:04.319102,254287,-5252,1317,-598,-401,424,2796,-49,333,-139
1395,2,2022-09-15T20:41:04.328622,254299,-5252,1317,-598,-401,424,2796,-49,333,-139
1396,2,2022-09-15T20:41:04.335061,254305,-5252,1317,-598,-401,424,2796,-49,333,-139
1397,2,2022-09-15T20:41:04.341484,254311,-5252,1317,-598,-401,424,2796,-49,333,-139
1398,2,2022-09-15T20:41:04.350915,254319,-5252,1317,-598,-401,424,2796,-49,333,-139
1399,2,2022-09-15T20:41:04.357092,254326,-5252,1317,-598,-401,424,2796,-49,333,-139
1400,2,2022-09-15T20:41:04.364326,254333,-5219,1402,-573,20,8,4005,-49,333,-139
1401,2,2022-09-15T20:41:04.372987,254341,-5219,1402,-573,20,8,4005,-49,333,-139
1402,2,2022-09-15T20:41:04.379799,254349,-5296,1399,-576,-20,33,4367,-49,333,-139
1403,2,2022-09-15T20:41:04.386460,254356,-5296,1399,-576,-20,33,4367,-49,333,-139
1404,2,2022-09-15T20:41:04.392151,254361,-5296,1399,-576,-20,33,4367,-49,333,-139
1405,2,2022-09-15T20:41:04.399650,254369,-5318,1483,-598,102,-83,3579,-49,333,-139
1406,2,2022-09-15T20:41:04.410223,254380,-5318,1483,-598,102,-83,3579,-49,333,-139
1407,2,2022-09-15T20:41:04.417796,254388,-5287,1560,-605,231,113,2411,-55,327,-137
1408,2,2022-09-15T20:41:04.429056,254398,-5287,1560,-605,231,113,2411,-55,327,-137
1409,2,2022-09-15T20:41:04.436339,254406,-5287,1560,-605,231,113,2411,-55,327,-137
1410,2,2022-09-15T20:41:04.443820,254413,-5206,1535,-615,241,315,1534,-55,327,-137
1411,2,2022-09-15T20:41:04.452703,254422,-5206,1535,-615,241,315,1534,-55,327,-137
1412,2,2022-09-15T20:41:04.458639,254429,-5153,1499,-616,334,649,1174,-55,327,-137
1413,2,2022-09-15T20:41:04.467229,254437,-5153,1499,-616,334,649,1174,-55,327,-137
1414,2,2022-09-15T20:41:04.480074,254449,-5169,1557,-649,530,1245,1264,-55,327,-137
1415,2,2022-09-15T20:41:04.487770,254456,-5169,1557,-649,530,1245,1264,-55,327,-137
1416,2,2022-09-15T20:41:04.496050,254465,-5169,1557,-649,530,1245,1264,-55,327,-137
1417,2,2022-09-15T20:41:04.506174,254476,-5225,1628,-675,493,1395,1084,-55,327,-137
1418,2,2022-09-15T20:41:04.513163,254483,-5225,1628,-675,493,1395,1084,-55,327,-137
1419,2,2022-09-15T20:41:04.519170,254488,-5307,1704,-697,263,990,486,-55,327,-137
1420,2,2022-09-15T20:41:04.531366,254500,-5307,1704,-697,263,990,486,-55,327,-137
1421,2,2022-09-15T20:41:04.538560,254509,-5238,1656,-674,-26,121,-245,-47,321,-137
1422,2,2022-09-15T20:41:04.547129,254516,-5238,1656,-674,-26,121,-245,-47,321,-137
1423,2,2022-09-15T20:41:04.558568,254528,-5241,1509,-686,-166,-570,-537,-47,321,-137
1424,2,2022-09-15T20:41:04.566990,254536,-5241,1509,-686,-166,-570,-537,-47,321,-137
1425,2,2022-09-15T20:41:04.577008,254546,-5241,1509,-686,-166,-570,-537,-47,321,-137
1426,2,2022-09-15T20:41:04.585731,254556,-5176,1423,-687,-31,-1074,-762,-47,321,-137
1427,2,2022-09-15T20:41:04.592015,254562,-5176,1423,-687,-31,-1074,-762,-47,321,-137
1428,2,2022-09-15T20:41:04.598962,254568,-5096,1477,-653,258,-914,-747,-47,321,-137
1429,2,2022-09-15T20:41:04.608408,254578,-5096,1477,-653,258,-914,-747,-47,321,-137
1430,2,2022-09-15T20:41:04.614633,254584,-5096,1477,-653,258,-914,-747,-47,321,-137
1431,2,2022-09-15T20:41:04.620706,254589,-5198,1537,-634,581,-305,-572,-47,321,-137
1432,2,2022-09-15T20:41:04.631396,254601,-5198,1537,-634,581,-305,-572,-47,321,-137
1433,2,2022-09-15T20:41:04.638227,254608,-5190,1500,-665,733,-628,-563,-47,321,-137
1434,2,2022-09-15T20:41:04.646884,254615,-5190,1500,-665,733,-628,-563,-47,321,-137
1435,2,2022-09-15T20:41:04.656405,254626,-5190,1500,-665,733,-628,-563,-47,321,-137
1436,2,2022-09-15T20:41:04.663654,254633,-5195,1499,-656,978,-1077,-945,-46,324,-134
1437,2,2022-09-15T20:41:04.671463,254640,-5195,1499,-656,978,-1077,-945,-46,324,-134
1438,2,2022-09-15T20:41:04.681925,254651,-5206,1563,-653,1178,-1168,-1212,-46,324,-134
1439,2,2022-09-15T20:41:04.689236,254659,-5206,1563,-653,1178,-1168,-1212,-46,324,-134
1440,2,2022-09-15T20:41:04.695348,254664,-5206,1563,-653,1178,-1168,-1212,-46,324,-134
1441,2,2022-09-15T20:41:04.701799,254671,-4987,1516,-672,1838,171,-1724,-46,324,-134
1442,2,2022-09-15T20:41:04.710390,254680,-4987,1516,-672,1838,171,-1724,-46,324,-134
1443,2,2022-09-15T20:41:04.717013,254687,-4987,1516,-672,1838,171,-1724,-46,324,-134
1444,2,2022-09-15T20:41:04.727462,254696,-5168,1493,-607,7998,6504,-1241,-46,324,-134
