,imu,server_time,arduino_time,ax,ay,az,gx,gy,gz,mx,my,mz
0,2,2022-09-15T20:48:09.757244,679763,-5499,501,-735,-14514,1604,-542,70,386,-190
1,2,2022-09-15T20:48:09.777033,679777,-5499,501,-735,-14514,1604,-542,70,386,-190
2,2,2022-09-15T20:48:09.785143,679790,-5485,527,-741,-14840,1758,-292,70,386,-190
3,2,2022-09-15T20:48:09.798660,679804,-5489,545,-749,-15250,1922,-22,70,386,-190
4,2,2022-09-15T20:48:09.809869,679815,-5489,545,-749,-15250,1922,-22,70,386,-190
5,2,2022-09-15T20:48:09.817487,679823,-5492,550,-764,-15675,2093,176,70,386,-190
6,2,2022-09-15T20:48:09.824662,679830,-5492,550,-764,-15675,2093,176,70,386,-190
7,2,2022-09-15T20:48:09.829997,679836,-5492,550,-764,-15675,2093,176,70,386,-190
8,2,2022-09-15T20:48:09.837127,679842,-5498,559,-779,-16078,2261,289,70,386,-190
9,2,2022-09-15T20:48:09.844875,679851,-5498,559,-779,-16078,2261,289,70,386,-190
10,2,2022-09-15T20:48:09.850837,679856,-5498,559,-779,-16078,2261,289,70,386,-190
11,2,2022-09-15T20:48:09.857882,679863,-5500,561,-790,-16396,2470,283,70,386,-190
12,2,2022-09-15T20:48:09.869760,679875,-5500,561,-790,-16396,2470,283,70,386,-190
13,2,2022-09-15T20:48:09.876539,679882,-5516,560,-798,-16606,2641,197,53,379,-190
14,2,2022-09-15T20:48:09.884656,679890,-5516,560,-798,-16606,2641,197,53,379,-197
15,2,2022-09-15T20:48:09.892558,679898,-5516,560,-798,-16606,2641,197,53,379,-197
16,2,2022-09-15T20:48:09.899602,679905,-5516,560,-798,-16606,2641,197,53,379,-197
17,2,2022-09-15T20:48:09.911403,679917,-5516,560,-798,-16606,2641,197,53,379,-197
18,2,2022-09-15T20:48:09.920369,679924,-5534,553,-823,-16720,2731,-225,53,379,-197
19,2,2022-09-15T20:48:09.927386,679932,-5534,553,-823,-16720,2731,-225,53,379,-197
20,2,2022-09-15T20:48:09.933518,679939,-5534,553,-823,-16720,2731,-225,53,379,-197
21,2,2022-09-15T20:48:09.941529,679947,-5532,559,-832,-16672,2692,-502,53,379,-197
22,2,2022-09-15T20:48:09.951631,679957,-5532,559,-832,-16672,2692,-502,53,379,-197
23,2,2022-09-15T20:48:09.959713,679965,-5532,559,-832,-16672,2692,-502,53,379,-197
24,2,2022-09-15T20:48:09.966148,679971,-5532,559,-832,-16672,2692,-502,53,379,-197
25,2,2022-09-15T20:48:09.971524,679977,-5532,559,-832,-16672,2692,-502,53,379,-197
26,2,2022-09-15T20:48:09.980353,679986,-5532,559,-832,-16672,2692,-502,53,379,-197
27,2,2022-09-15T20:48:09.988612,679993,-5532,559,-832,-16672,2692,-502,53,379,-197
28,2,2022-09-15T20:48:09.994764,680000,-5532,559,-832,-16672,2692,-502,53,379,-197
29,2,2022-09-15T20:48:10.005022,680010,-5553,560,-828,-16627,2440,-944,29,385,-193
30,2,2022-09-15T20:48:10.015649,680020,-5553,560,-828,-16627,2440,-944,29,385,-193
31,2,2022-09-15T20:48:10.022263,680028,-5563,549,-832,-16537,2302,-1002,29,385,-193
32,2,2022-09-15T20:48:10.031886,680038,-5563,549,-832,-16537,2302,-1002,29,385,-193
33,2,2022-09-15T20:48:10.041915,680047,-5564,542,-823,-16417,2169,-1132,29,385,-193
34,2,2022-09-15T20:48:10.050588,680056,-5564,542,-823,-16417,2169,-1132,29,385,-193
35,2,2022-09-15T20:48:10.056055,680061,-5564,542,-823,-16417,2169,-1132,29,385,-193
36,2,2022-09-15T20:48:10.062346,680068,-5552,526,-817,-16273,2055,-1331,29,385,-193
37,2,2022-09-15T20:48:10.073989,680080,-5552,526,-817,-16273,2055,-1331,29,385,-193
38,2,2022-09-15T20:48:10.080534,680086,-5559,511,-809,-16088,1995,-1558,29,385,-193
39,2,2022-09-15T20:48:10.091421,680095,-5559,511,-809,-16088,1995,-1558,29,385,-193
40,2,2022-09-15T20:48:10.100121,680105,-5564,499,-792,-15883,1958,-1771,29,385,-193
41,2,2022-09-15T20:48:10.108590,680115,-5564,499,-792,-15883,1958,-1771,29,385,-193
42,2,2022-09-15T20:48:10.117481,680123,-5560,499,-777,-15714,1888,-1956,29,385,-193
43,2,2022-09-15T20:48:10.127916,680133,-5560,499,-777,-15714,1888,-1956,29,385,-193
44,2,2022-09-15T20:48:10.133347,680139,-5560,499,-777,-15714,1888,-1956,29,385,-193
45,2,2022-09-15T20:48:10.143055,680148,-5542,493,-772,-15572,1845,-2082,18,380,-178
46,2,2022-09-15T20:48:10.152828,680158,-5542,493,-772,-15572,1845,-2082,18,380,-178
47,2,2022-09-15T20:48:10.161742,680166,-5532,482,-764,-15446,1856,-2173,18,380,-178
48,2,2022-09-15T20:48:10.172009,680178,-5532,482,-764,-15446,1856,-2173,18,380,-178
49,2,2022-09-15T20:48:10.177511,680183,-5519,469,-758,-15341,1852,-2236,18,380,-178
50,2,2022-09-15T20:48:10.183120,680188,-5519,469,-758,-15341,1852,-2236,18,380,-178
51,2,2022-09-15T20:48:10.190228,680196,-5519,469,-758,-15341,1852,-2236,18,380,-178
52,2,2022-09-15T20:48:10.195968,680202,-5519,469,-758,-15341,1852,-2236,18,380,-178
53,2,2022-09-15T20:48:10.201375,680207,-5509,462,-760,-15223,1873,-2238,18,380,-178
54,2,2022-09-15T20:48:10.210055,680215,-5509,462,-760,-15223,1873,-2238,18,380,-178
55,2,2022-09-15T20:48:10.218752,680224,-5510,462,-760,-15122,1923,-2194,18,380,-178
56,2,2022-09-15T20:48:10.225702,680230,-5510,462,-760,-15122,1923,-2194,18,380,-178
57,2,2022-09-15T20:48:10.232540,680238,-5510,462,-760,-15122,1923,-2194,18,380,-178
58,2,2022-09-15T20:48:10.241226,680247,-5505,468,-767,-15095,1980,-2144,18,380,-178
59,2,2022-09-15T20:48:10.248423,680254,-5505,468,-767,-15095,1980,-2144,18,380,-178
60,2,2022-09-15T20:48:10.254739,680260,-5505,468,-767,-15095,1980,-2144,18,380,-178
61,2,2022-09-15T20:48:10.262202,680266,-5505,459,-778,-15096,2044,-2054,24,380,-162
62,2,2022-09-15T20:48:10.273924,680279,-5505,459,-778,-15096,2044,-2054,24,380,-162
63,2,2022-09-15T20:48:10.282863,680289,-5498,458,-782,-15069,2065,-1975,24,380,-162
64,2,2022-09-15T20:48:10.293912,680299,-5498,458,-782,-15069,2065,-1975,24,380,-162
65,2,2022-09-15T20:48:10.303896,680309,-5499,464,-790,-15031,2089,-1862,24,380,-162
66,2,2022-09-15T20:48:10.312234,680317,-5499,464,-790,-15031,2089,-1862,24,380,-162
67,2,2022-09-15T20:48:10.321019,680327,-5504,475,-797,-14958,2099,-1692,24,380,-162
68,2,2022-09-15T20:48:10.329939,680335,-5504,475,-797,-14958,2099,-1692,24,380,-162
69,2,2022-09-15T20:48:10.337319,680342,-5517,480,-795,-14866,2033,-1497,24,380,-162
70,2,2022-09-15T20:48:10.349486,680354,-5517,480,-795,-14866,2033,-1497,24,380,-162
71,2,2022-09-15T20:48:10.357682,680364,-5527,481,-797,-14734,1882,-1354,24,380,-162
72,2,2022-09-15T20:48:10.363868,680369,-5527,481,-797,-14734,1882,-1354,24,380,-162
73,2,2022-09-15T20:48:10.369965,680375,-5527,481,-797,-14734,1882,-1354,24,380,-162
74,2,2022-09-15T20:48:10.378591,680384,-5531,483,-788,-14522,1639,-1274,8,382,-154
75,2,2022-09-15T20:48:10.388219,680393,-5531,483,-788,-14522,1639,-1274,8,382,-154
76,2,2022-09-15T20:48:10.397678,680403,-5525,495,-778,-14242,1412,-1232,8,382,-154
77,2,2022-09-15T20:48:10.407745,680413,-5525,495,-778,-14242,1412,-1232,8,382,-154
78,2,2022-09-15T20:48:10.414044,680420,-5525,495,-778,-14242,1412,-1232,8,382,-154
79,2,2022-09-15T20:48:10.421664,680427,-5525,500,-767,-13930,1242,-1185,8,382,-154
80,2,2022-09-15T20:48:10.427144,680433,-5525,500,-767,-13930,1242,-1185,8,382,-154
81,2,2022-09-15T20:48:10.433292,680438,-5525,500,-767,-13930,1242,-1185,8,382,-154
82,2,2022-09-15T20:48:10.442437,680449,-5531,502,-757,-13579,1100,-1142,8,382,-154
83,2,2022-09-15T20:48:10.449869,680456,-5531,502,-757,-13579,1100,-1142,8,382,-154
84,2,2022-09-15T20:48:10.456279,680462,-5531,502,-757,-13579,1100,-1142,8,382,-154
85,2,2022-09-15T20:48:10.463029,680467,-5541,502,-738,-13182,955,-1111,8,382,-154
86,2,2022-09-15T20:48:10.473694,680479,-5541,502,-738,-13182,955,-1111,8,382,-154
87,2,2022-09-15T20:48:10.480792,680486,-5558,492,-729,-12739,797,-1115,8,382,-154
88,2,2022-09-15T20:48:10.490705,680496,-5558,492,-729,-12739,797,-1115,8,382,-154
89,2,2022-09-15T20:48:10.497285,680503,-5570,492,-712,-12263,644,-1195,16,382,-138
90,2,2022-09-15T20:48:10.506828,680512,-5570,492,-712,-12263,644,-1195,16,382,-138
91,2,2022-09-15T20:48:10.513806,680518,-5570,492,-712,-12263,644,-1195,16,382,-138
92,2,2022-09-15T20:48:10.521473,680527,-5552,492,-705,-11820,540,-1323,16,382,-138
93,2,2022-09-15T20:48:10.532696,680539,-5552,492,-705,-11820,540,-1323,16,382,-138
94,2,2022-09-15T20:48:10.543236,680549,-5550,481,-689,-11440,555,-1446,16,382,-138
95,2,2022-09-15T20:48:10.549718,680555,-5550,481,-689,-11440,555,-1446,16,382,-138
96,2,2022-09-15T20:48:10.557103,680563,-5558,459,-677,-11049,582,-1538,16,382,-138
97,2,2022-09-15T20:48:10.567092,680572,-5558,459,-677,-11049,582,-1538,16,382,-138
98,2,2022-09-15T20:48:10.572771,680579,-5558,459,-677,-11049,582,-1538,16,382,-138
99,2,2022-09-15T20:48:10.582117,680588,-5555,441,-672,-10583,551,-1573,16,382,-138
100,2,2022-09-15T20:48:10.593005,680599,-5555,441,-672,-10583,551,-1573,16,382,-138
101,2,2022-09-15T20:48:10.601183,680606,-5537,427,-659,-10047,520,-1541,16,382,-138
102,2,2022-09-15T20:48:10.610489,680615,-5537,427,-659,-10047,520,-1541,16,382,-138
103,2,2022-09-15T20:48:10.619336,680625,-5537,418,-653,-9453,469,-1450,21,387,-127
104,2,2022-09-15T20:48:10.628685,680634,-5537,418,-653,-9453,469,-1450,21,387,-127
105,2,2022-09-15T20:48:10.635434,680641,-5537,418,-653,-9453,469,-1450,21,387,-127
106,2,2022-09-15T20:48:10.645104,680649,-5540,413,-644,-8811,360,-1278,21,387,-127
107,2,2022-09-15T20:48:10.656231,680662,-5540,413,-644,-8811,360,-1278,21,387,-127
108,2,2022-09-15T20:48:10.666925,680672,-5552,406,-635,-8134,242,-1061,21,387,-127
109,2,2022-09-15T20:48:10.674611,680680,-5552,406,-635,-8134,242,-1061,21,387,-127
110,2,2022-09-15T20:48:10.683796,680689,-5564,396,-625,-7406,128,-908,21,387,-127
111,2,2022-09-15T20:48:10.694673,680700,-5564,396,-625,-7406,128,-908,21,387,-127
112,2,2022-09-15T20:48:10.703657,680710,-5566,385,-619,-6640,-26,-853,21,387,-127
113,2,2022-09-15T20:48:10.710065,680715,-5566,385,-619,-6640,-26,-853,21,387,-127
114,2,2022-09-15T20:48:10.721762,680727,-5563,370,-609,-5738,-203,-881,21,387,-127
115,2,2022-09-15T20:48:10.731311,680737,-5563,370,-609,-5738,-203,-881,21,387,-127
116,2,2022-09-15T20:48:10.738370,680743,-5566,370,-585,-4751,-428,-953,21,387,-127
117,2,2022-09-15T20:48:10.749344,680755,-5566,370,-585,-4751,-428,-953,21,387,-127
118,2,2022-09-15T20:48:10.756066,680762,-5566,370,-585,-4751,-428,-953,21,387,-127
119,2,2022-09-15T20:48:10.763506,680769,-5554,377,-574,-3710,-647,-927,23,381,-123
120,2,2022-09-15T20:48:10.773555,680779,-5554,377,-574,-3710,-647,-927,23,381,-123
121,2,2022-09-15T20:48:10.779967,680786,-5554,377,-574,-3710,-647,-927,23,381,-123
122,2,2022-09-15T20:48:10.787446,680792,-5554,377,-574,-3710,-647,-927,23,381,-123
123,2,2022-09-15T20:48:10.796289,680802,-5554,377,-574,-3710,-647,-927,23,381,-123
124,2,2022-09-15T20:48:10.803205,680809,-5550,365,-553,-1518,-923,-639,23,381,-123
125,2,2022-09-15T20:48:10.810531,680815,-5550,365,-553,-1518,-923,-639,23,381,-123
126,2,2022-09-15T20:48:10.820095,680824,-5532,371,-544,-330,-1125,-505,23,381,-123
127,2,2022-09-15T20:48:10.829377,680835,-5532,371,-544,-330,-1125,-505,23,381,-123
128,2,2022-09-15T20:48:10.837419,680843,-5507,389,-539,887,-1285,-315,23,381,-123
129,2,2022-09-15T20:48:10.842891,680849,-5507,389,-539,887,-1285,-315,23,381,-123
130,2,2022-09-15T20:48:10.848169,680854,-5507,389,-539,887,-1285,-315,23,381,-123
131,2,2022-09-15T20:48:10.854682,680860,-5507,389,-539,887,-1285,-315,23,381,-123
132,2,2022-09-15T20:48:10.863106,680867,-5482,402,-539,2098,-1397,-13,23,381,-123
133,2,2022-09-15T20:48:10.870582,680877,-5482,402,-539,2098,-1397,-13,23,381,-123
134,2,2022-09-15T20:48:10.878760,680884,-5478,426,-531,3264,-1423,405,27,389,-111
135,2,2022-09-15T20:48:10.893839,680899,-5478,426,-531,3264,-1423,405,27,389,-111
136,2,2022-09-15T20:48:10.900514,680906,-5469,441,-534,4360,-1416,795,27,389,-111
137,2,2022-09-15T20:48:10.907088,680912,-5469,441,-534,4360,-1416,795,27,389,-111
138,2,2022-09-15T20:48:10.913372,680919,-5469,441,-534,4360,-1416,795,27,389,-111
139,2,2022-09-15T20:48:10.922808,680929,-5475,468,-540,5338,-1378,1069,27,389,-111
140,2,2022-09-15T20:48:10.932640,680938,-5475,468,-540,5338,-1378,1069,27,389,-111
141,2,2022-09-15T20:48:10.941377,680946,-5490,494,-542,6194,-1288,1251,27,389,-111
142,2,2022-09-15T20:48:10.950673,680955,-5490,494,-542,6194,-1288,1251,27,389,-111
143,2,2022-09-15T20:48:10.959860,680965,-5498,525,-551,6894,-1235,1379,27,389,-111
144,2,2022-09-15T20:48:10.971138,680977,-5498,525,-551,6894,-1235,1379,27,389,-111
145,2,2022-09-15T20:48:10.980831,680986,-5514,544,-560,7481,-1271,1485,27,389,-111
146,2,2022-09-15T20:48:10.988988,680993,-5514,544,-560,7481,-1271,1485,27,389,-111
147,2,2022-09-15T20:48:10.995336,681000,-5514,544,-560,7481,-1271,1485,27,389,-111
148,2,2022-09-15T20:48:11.004806,681010,-5523,562,-565,8015,-1377,1567,21,379,-121
149,2,2022-09-15T20:48:11.016199,681021,-5523,562,-565,8015,-1377,1567,21,379,-121
150,2,2022-09-15T20:48:11.027538,681032,-5524,568,-580,8533,-1503,1584,21,379,-121
151,2,2022-09-15T20:48:11.037076,681039,-5524,568,-580,8533,-1503,1584,21,379,-121
152,2,2022-09-15T20:48:11.042688,681049,-5526,573,-583,9058,-1603,1537,21,379,-121
153,2,2022-09-15T20:48:11.050083,681056,-5526,573,-583,9058,-1603,1537,21,379,-121
154,2,2022-09-15T20:48:11.056502,681063,-5526,573,-583,9058,-1603,1537,21,379,-121
155,2,2022-09-15T20:48:11.064038,681069,-5541,574,-583,9620,-1696,1448,21,379,-121
156,2,2022-09-15T20:48:11.072909,681078,-5541,574,-583,9620,-1696,1448,21,379,-121
157,2,2022-09-15T20:48:11.080366,681085,-5549,561,-592,10233,-1843,1292,21,379,-121
158,2,2022-09-15T20:48:11.087212,681092,-5549,561,-592,10233,-1843,1292,21,379,-121
159,2,2022-09-15T20:48:11.095579,681101,-5549,561,-592,10233,-1843,1292,21,379,-121
160,2,2022-09-15T20:48:11.102230,681108,-5540,562,-594,10893,-2020,1088,21,379,-121
161,2,2022-09-15T20:48:11.107517,681113,-5540,562,-594,10893,-2020,1088,21,379,-121
162,2,2022-09-15T20:48:11.113586,681118,-5540,562,-594,10893,-2020,1088,21,379,-121
163,2,2022-09-15T20:48:11.121989,681127,-5537,567,-595,11545,-2146,901,14,386,-126
164,2,2022-09-15T20:48:11.131171,681137,-5537,567,-595,11545,-2146,901,14,386,-126
165,2,2022-09-15T20:48:11.137981,681143,-5535,567,-595,12146,-2215,750,14,386,-126
166,2,2022-09-15T20:48:11.146522,681152,-5535,567,-595,12146,-2215,750,14,386,-126
167,2,2022-09-15T20:48:11.151436,681157,-5535,567,-595,12146,-2215,750,14,386,-126
168,2,2022-09-15T20:48:11.158504,681164,-5541,572,-595,12666,-2289,607,14,386,-126
169,2,2022-09-15T20:48:11.167340,681172,-5541,572,-595,12666,-2289,607,14,386,-126
170,2,2022-09-15T20:48:11.174014,681179,-5541,572,-595,12666,-2289,607,14,386,-126
171,2,2022-09-15T20:48:11.179062,681185,-5548,558,-595,13106,-2375,471,14,386,-126
172,2,2022-09-15T20:48:11.187497,681193,-5548,558,-595,13106,-2375,471,14,386,-126
173,2,2022-09-15T20:48:11.194010,681199,-5548,558,-595,13106,-2375,471,14,386,-126
174,2,2022-09-15T20:48:11.200956,681206,-5534,551,-595,13493,-2513,334,14,386,-126
175,2,2022-09-15T20:48:11.208386,681213,-5534,551,-595,13493,-2513,334,14,386,-126
176,2,2022-09-15T20:48:11.217975,681223,-5516,545,-598,13859,-2562,231,14,386,-126
177,2,2022-09-15T20:48:11.226526,681232,-5516,545,-598,13859,-2562,231,14,386,-126
178,2,2022-09-15T20:48:11.235377,681240,-5516,545,-598,13859,-2562,231,14,386,-126
179,2,2022-09-15T20:48:11.246098,681251,-5511,537,-592,14168,-2521,201,16,376,-136
180,2,2022-09-15T20:48:11.257106,681263,-5511,537,-592,14168,-2521,201,16,376,-136
181,2,2022-09-15T20:48:11.265926,681271,-5516,525,-595,14459,-2472,202,16,376,-136
182,2,2022-09-15T20:48:11.272165,681277,-5516,525,-595,14459,-2472,202,16,376,-136
183,2,2022-09-15T20:48:11.277821,681283,-5525,520,-605,14722,-2469,224,16,376,-136
184,2,2022-09-15T20:48:11.287133,681292,-5525,520,-605,14722,-2469,224,16,376,-136
185,2,2022-09-15T20:48:11.293357,681299,-5525,520,-605,14722,-2469,224,16,376,-136
186,2,2022-09-15T20:48:11.302852,681309,-5535,518,-615,14941,-2484,199,16,376,-136
187,2,2022-09-15T20:48:11.312023,681315,-5535,518,-615,14941,-2484,199,16,376,-136
188,2,2022-09-15T20:48:11.318824,681324,-5538,511,-621,15113,-2462,181,16,376,-136
189,2,2022-09-15T20:48:11.329378,681335,-5538,511,-621,15113,-2462,181,16,376,-136
190,2,2022-09-15T20:48:11.335390,681340,-5538,511,-621,15113,-2462,181,16,376,-136
191,2,2022-09-15T20:48:11.341973,681348,-5555,500,-625,15267,-2440,130,16,376,-136
192,2,2022-09-15T20:48:11.350527,681356,-5555,500,-625,15267,-2440,130,16,376,-136
193,2,2022-09-15T20:48:11.357663,681363,-5568,486,-632,15438,-2521,17,16,376,-136
194,2,2022-09-15T20:48:11.365680,681370,-5568,486,-632,15438,-2521,17,16,376,-136
195,2,2022-09-15T20:48:11.372586,681377,-5568,486,-632,15438,-2521,17,16,376,-136
196,2,2022-09-15T20:48:11.382899,681388,-5561,473,-632,15662,-2654,-111,17,379,-151
197,2,2022-09-15T20:48:11.392737,681398,-5561,473,-632,15662,-2654,-111,17,379,-151
198,2,2022-09-15T20:48:11.400943,681407,-5561,473,-632,15662,-2654,-111,17,379,-151
199,2,2022-09-15T20:48:11.407454,681413,-5561,473,-632,15662,-2654,-111,17,379,-151
200,2,2022-09-15T20:48:11.413315,681418,-5561,473,-632,15662,-2654,-111,17,379,-151
201,2,2022-09-15T20:48:11.421612,681426,-5537,458,-630,16117,-2759,-264,17,379,-151
202,2,2022-09-15T20:48:11.430023,681436,-5537,458,-630,16117,-2759,-264,17,379,-151
203,2,2022-09-15T20:48:11.440304,681444,-5535,456,-631,16325,-2801,-264,17,379,-151
204,2,2022-09-15T20:48:11.451115,681457,-5535,456,-631,16325,-2801,-264,17,379,-151
205,2,2022-09-15T20:48:11.457835,681463,-5537,456,-634,16485,-2827,-247,17,379,-151
206,2,2022-09-15T20:48:11.469136,681475,-5537,456,-634,16485,-2827,-247,17,379,-151
207,2,2022-09-15T20:48:11.475374,681481,-5537,456,-634,16485,-2827,-247,17,379,-151
208,2,2022-09-15T20:48:11.483518,681489,-5541,461,-626,16544,-2835,-227,17,379,-151
209,2,2022-09-15T20:48:11.496270,681502,-5541,461,-626,16544,-2835,-227,17,379,-151
210,2,2022-09-15T20:48:11.502963,681508,-5550,456,-610,16522,-2815,-216,28,382,-170
211,2,2022-09-15T20:48:11.513039,681518,-5550,456,-610,16522,-2815,-216,28,382,-170
212,2,2022-09-15T20:48:11.522346,681528,-5551,457,-612,16445,-2808,-203,28,382,-170
213,2,2022-09-15T20:48:11.531603,681537,-5551,457,-612,16445,-2808,-203,28,382,-170
214,2,2022-09-15T20:48:11.541638,681547,-5542,458,-622,16332,-2755,-210,28,382,-170
215,2,2022-09-15T20:48:11.549356,681555,-5542,458,-622,16332,-2755,-210,28,382,-170
216,2,2022-09-15T20:48:11.554588,681561,-5542,458,-622,16332,-2755,-210,28,382,-170
217,2,2022-09-15T20:48:11.561481,681567,-5546,450,-620,16160,-2595,-253,28,382,-170
218,2,2022-09-15T20:48:11.571400,681577,-5546,450,-620,16160,-2595,-253,28,382,-170
219,2,2022-09-15T20:48:11.582032,681587,-5552,442,-622,15953,-2424,-324,28,382,-170
220,2,2022-09-15T20:48:11.592006,681597,-5552,442,-622,15953,-2424,-324,28,382,-170
221,2,2022-09-15T20:48:11.599921,681606,-5552,434,-629,15729,-2291,-404,28,382,-170
222,2,2022-09-15T20:48:11.609465,681615,-5552,434,-629,15729,-2291,-404,28,382,-170
223,2,2022-09-15T20:48:11.616435,681622,-5552,434,-629,15729,-2291,-404,28,382,-170
224,2,2022-09-15T20:48:11.627005,681632,-5552,423,-631,15531,-2189,-457,41,379,-169
225,2,2022-09-15T20:48:11.635519,681640,-5552,423,-631,15531,-2189,-457,41,379,-169
226,2,2022-09-15T20:48:11.645844,681651,-5541,416,-634,15351,-2108,-541,41,379,-169
227,2,2022-09-15T20:48:11.654735,681660,-5541,416,-634,15351,-2108,-541,41,379,-169
228,2,2022-09-15T20:48:11.662096,681667,-5528,413,-642,15214,-2031,-575,41,379,-169
229,2,2022-09-15T20:48:11.669243,681675,-5528,413,-642,15214,-2031,-575,41,379,-169
230,2,2022-09-15T20:48:11.675538,681681,-5528,413,-642,15214,-2031,-575,41,379,-169
231,2,2022-09-15T20:48:11.681985,681688,-5519,422,-655,15077,-1940,-507,41,379,-169
232,2,2022-09-15T20:48:11.688815,681693,-5519,422,-655,15077,-1940,-507,41,379,-169
233,2,2022-09-15T20:48:11.697829,681703,-5519,422,-655,15077,-1940,-507,41,379,-169
234,2,2022-09-15T20:48:11.707332,681712,-5521,430,-655,14881,-1862,-387,41,379,-169
235,2,2022-09-15T20:48:11.715991,681721,-5521,430,-655,14881,-1862,-387,41,379,-169
236,2,2022-09-15T20:48:11.722724,681729,-5526,439,-664,14666,-1791,-248,41,379,-169
237,2,2022-09-15T20:48:11.730779,681737,-5526,439,-664,14666,-1791,-248,41,379,-169
238,2,2022-09-15T20:48:11.737696,681743,-5526,439,-664,14666,-1791,-248,41,379,-169
239,2,2022-09-15T20:48:11.744558,681750,-5517,453,-659,14432,-1737,-105,55,397,-177
240,2,2022-09-15T20:48:11.750415,681756,-5517,453,-659,14432,-1737,-105,55,397,-177
241,2,2022-09-15T20:48:11.755733,681761,-5517,453,-659,14432,-1737,-105,55,397,-177
242,2,2022-09-15T20:48:11.763517,681768,-5524,465,-661,14191,-1688,85,55,397,-177
243,2,2022-09-15T20:48:11.773092,681779,-5524,465,-661,14191,-1688,85,55,397,-177
244,2,2022-09-15T20:48:11.779848,681786,-5527,471,-667,13977,-1704,283,55,397,-177
245,2,2022-09-15T20:48:11.790307,681794,-5527,471,-667,13977,-1704,283,55,397,-177
246,2,2022-09-15T20:48:11.797177,681802,-5527,471,-667,13977,-1704,283,55,397,-177
247,2,2022-09-15T20:48:11.805521,681811,-5516,488,-666,13823,-1759,425,55,397,-177
248,2,2022-09-15T20:48:11.814048,681820,-5516,488,-666,13823,-1759,425,55,397,-177
249,2,2022-09-15T20:48:11.823037,681829,-5506,505,-668,13696,-1776,476,55,397,-177
250,2,2022-09-15T20:48:11.830327,681836,-5506,505,-668,13696,-1776,476,55,397,-177
251,2,2022-09-15T20:48:11.836639,681842,-5506,505,-668,13696,-1776,476,55,397,-177
252,2,2022-09-15T20:48:11.843571,681849,-5496,536,-658,13563,-1738,515,55,397,-177
253,2,2022-09-15T20:48:11.848946,681854,-5496,536,-658,13563,-1738,515,55,397,-177
254,2,2022-09-15T20:48:11.855803,681862,-5496,536,-658,13563,-1738,515,55,397,-177
255,2,2022-09-15T20:48:11.864617,681869,-5499,562,-657,13411,-1653,596,76,394,-186
256,2,2022-09-15T20:48:11.871826,681878,-5499,562,-657,13411,-1653,596,76,394,-186
257,2,2022-09-15T20:48:11.881877,681887,-5501,580,-656,13225,-1595,658,76,394,-186
258,2,2022-09-15T20:48:11.892937,681899,-5501,580,-656,13225,-1595,658,76,394,-186
259,2,2022-09-15T20:48:11.901441,681907,-5501,596,-666,12994,-1529,661,76,394,-186
260,2,2022-09-15T20:48:11.907871,681914,-5501,596,-666,12994,-1529,661,76,394,-186
261,2,2022-09-15T20:48:11.913754,681919,-5501,596,-666,12994,-1529,661,76,394,-186
262,2,2022-09-15T20:48:11.922882,681928,-5511,608,-672,12714,-1451,591,76,394,-186
263,2,2022-09-15T20:48:11.934084,681939,-5511,608,-672,12714,-1451,591,76,394,-186
264,2,2022-09-15T20:48:11.942220,681948,-5518,612,-674,12424,-1414,498,76,394,-186
265,2,2022-09-15T20:48:11.947610,681954,-5518,612,-674,12424,-1414,498,76,394,-186
266,2,2022-09-15T20:48:11.953043,681959,-5518,612,-674,12424,-1414,498,76,394,-186
267,2,2022-09-15T20:48:11.959152,681965,-5524,616,-682,12167,-1384,449,76,394,-186
268,2,2022-09-15T20:48:11.968469,681973,-5524,616,-682,12167,-1384,449,76,394,-186
269,2,2022-09-15T20:48:11.974749,681980,-5524,616,-682,12167,-1384,449,76,394,-186
270,2,2022-09-15T20:48:11.981439,681988,-5518,618,-691,11944,-1375,416,76,394,-186
271,2,2022-09-15T20:48:11.988792,681995,-5518,618,-691,11944,-1375,416,76,394,-186
272,2,2022-09-15T20:48:11.997003,682003,-5518,618,-691,11944,-1375,416,76,394,-186
273,2,2022-09-15T20:48:12.004133,682010,-5518,627,-693,11737,-1357,364,72,388,-178
274,2,2022-09-15T20:48:12.014366,682018,-5518,627,-693,11737,-1357,364,72,388,-178
275,2,2022-09-15T20:48:12.027282,682033,-5521,632,-698,11502,-1328,312,72,388,-178
276,2,2022-09-15T20:48:12.037749,682042,-5521,632,-698,11502,-1328,312,72,388,-178
277,2,2022-09-15T20:48:12.049313,682055,-5517,648,-695,11219,-1354,265,72,388,-178
278,2,2022-09-15T20:48:12.062125,682064,-5516,658,-697,10916,-1384,241,72,388,-178
279,2,2022-09-15T20:48:12.072884,682079,-5516,658,-697,10916,-1384,241,72,388,-178
280,2,2022-09-15T20:48:12.079416,682085,-5518,665,-697,10576,-1421,229,72,388,-178
281,2,2022-09-15T20:48:12.087999,682094,-5518,665,-697,10576,-1421,229,72,388,-178
282,2,2022-09-15T20:48:12.093236,682099,-5518,665,-697,10576,-1421,229,72,388,-178
283,2,2022-09-15T20:48:12.099993,682105,-5522,670,-685,10210,-1456,217,72,388,-178
284,2,2022-09-15T20:48:12.108477,682115,-5522,670,-685,10210,-1456,217,72,388,-178
285,2,2022-09-15T20:48:12.115033,682121,-5522,670,-685,10210,-1456,217,72,388,-178
286,2,2022-09-15T20:48:12.123671,682129,-5533,670,-679,9810,-1504,147,86,394,-184
287,2,2022-09-15T20:48:12.135768,682141,-5533,670,-679,9810,-1504,147,86,394,-184
288,2,2022-09-15T20:48:12.146338,682149,-5532,666,-680,9369,-1501,-29,86,394,-184
289,2,2022-09-15T20:48:12.156572,682163,-5532,666,-680,9369,-1501,-29,86,394,-184
290,2,2022-09-15T20:48:12.164187,682170,-5524,659,-675,8909,-1449,-262,86,394,-184
291,2,2022-09-15T20:48:12.169747,682176,-5524,659,-675,8909,-1449,-262,86,394,-184
292,2,2022-09-15T20:48:12.176317,682181,-5524,659,-675,8909,-1449,-262,86,394,-184
293,2,2022-09-15T20:48:12.183184,682189,-5521,654,-677,8458,-1373,-453,86,394,-184
294,2,2022-09-15T20:48:12.195606,682202,-5521,654,-677,8458,-1373,-453,86,394,-184
295,2,2022-09-15T20:48:12.205709,682211,-5508,654,-676,7993,-1289,-549,86,394,-184
296,2,2022-09-15T20:48:12.217759,682223,-5508,654,-676,7993,-1289,-549,86,394,-184
297,2,2022-09-15T20:48:12.228996,682234,-5511,648,-665,7494,-1158,-540,86,394,-184
298,2,2022-09-15T20:48:12.234591,682241,-5511,648,-665,7494,-1158,-540,86,394,-184
299,2,2022-09-15T20:48:12.243488,682249,-5517,639,-668,6975,-1045,-477,89,395,-173
300,2,2022-09-15T20:48:12.254511,682260,-5517,639,-668,6975,-1045,-477,89,395,-173
301,2,2022-09-15T20:48:12.262838,682267,-5507,645,-669,6455,-973,-431,89,395,-173
302,2,2022-09-15T20:48:12.274625,682280,-5507,645,-669,6455,-973,-431,89,395,-173
303,2,2022-09-15T20:48:12.282513,682289,-5498,659,-671,5847,-807,-414,89,395,-173
304,2,2022-09-15T20:48:12.292698,682298,-5498,659,-671,5847,-807,-414,89,395,-173
305,2,2022-09-15T20:48:12.301055,682307,-5495,662,-676,5124,-520,-376,89,395,-173
306,2,2022-09-15T20:48:12.310579,682315,-5495,662,-676,5124,-520,-376,89,395,-173
307,2,2022-09-15T20:48:12.318195,682323,-5495,662,-676,5124,-520,-376,89,395,-173
308,2,2022-09-15T20:48:12.327789,682334,-5494,665,-682,4289,-200,-340,89,395,-173
309,2,2022-09-15T20:48:12.333349,682339,-5494,665,-682,4289,-200,-340,89,395,-173
310,2,2022-09-15T20:48:12.343703,682349,-5493,669,-685,3396,166,-353,89,395,-173
311,2,2022-09-15T20:48:12.353595,682359,-5493,669,-685,3396,166,-353,89,395,-173
312,2,2022-09-15T20:48:12.362576,682368,-5489,675,-687,2429,506,-423,110,394,-174
313,2,2022-09-15T20:48:12.371716,682378,-5489,675,-687,2429,506,-423,110,394,-174
314,2,2022-09-15T20:48:12.378493,682384,-5482,682,-699,1372,843,-516,110,394,-174
315,2,2022-09-15T20:48:12.384796,682390,-5482,682,-699,1372,843,-516,110,394,-174
316,2,2022-09-15T20:48:12.391887,682397,-5482,682,-699,1372,843,-516,110,394,-174
317,2,2022-09-15T20:48:12.398765,682404,-5471,690,-720,247,1228,-559,110,394,-174
318,2,2022-09-15T20:48:12.408817,682415,-5471,690,-720,247,1228,-559,110,394,-174
319,2,2022-09-15T20:48:12.414910,682420,-5471,690,-720,247,1228,-559,110,394,-174
320,2,2022-09-15T20:48:12.422769,682428,-5462,701,-747,-945,1634,-545,110,394,-174
321,2,2022-09-15T20:48:12.431578,682437,-5462,701,-747,-945,1634,-545,110,394,-174
322,2,2022-09-15T20:48:12.439113,682444,-5466,711,-771,-2189,2004,-495,110,394,-174
323,2,2022-09-15T20:48:12.448044,682454,-5466,711,-771,-2189,2004,-495,110,394,-174
324,2,2022-09-15T20:48:12.454458,682460,-5466,711,-771,-2189,2004,-495,110,394,-174
325,2,2022-09-15T20:48:12.462015,682467,-5473,705,-797,-3428,2274,-386,110,394,-174
326,2,2022-09-15T20:48:12.470768,682476,-5473,705,-797,-3428,2274,-386,110,394,-174
327,2,2022-09-15T20:48:12.476500,682482,-5473,705,-797,-3428,2274,-386,110,394,-174
328,2,2022-09-15T20:48:12.484613,682489,-5476,709,-814,-4629,2455,-306,96,396,-184
329,2,2022-09-15T20:48:12.494391,682501,-5476,709,-814,-4629,2455,-306,96,396,-184
330,2,2022-09-15T20:48:12.501863,682507,-5493,701,-830,-5798,2573,-274,96,396,-184
331,2,2022-09-15T20:48:12.508707,682515,-5493,701,-830,-5798,2573,-274,96,396,-184
332,2,2022-09-15T20:48:12.515617,682521,-5493,701,-830,-5798,2573,-274,96,396,-184
333,2,2022-09-15T20:48:12.523383,682529,-5516,684,-849,-6813,2510,-289,96,396,-184
334,2,2022-09-15T20:48:12.533676,682540,-5516,684,-849,-6813,2510,-289,96,396,-184
335,2,2022-09-15T20:48:12.541374,682547,-5533,673,-863,-7663,2241,-333,96,396,-184
336,2,2022-09-15T20:48:12.552240,682558,-5533,673,-863,-7663,2241,-333,96,396,-184
337,2,2022-09-15T20:48:12.560701,682566,-5540,673,-876,-8397,1894,-360,96,396,-184
338,2,2022-09-15T20:48:12.572521,682578,-5540,673,-876,-8397,1894,-360,96,396,-184
339,2,2022-09-15T20:48:12.580162,682586,-5545,662,-870,-9019,1561,-356,96,396,-184
340,2,2022-09-15T20:48:12.588081,682594,-5545,662,-870,-9019,1561,-356,96,396,-184
341,2,2022-09-15T20:48:12.595340,682600,-5545,662,-870,-9019,1561,-356,96,396,-184
342,2,2022-09-15T20:48:12.604759,682610,-5545,656,-861,-9559,1255,-374,96,396,-184
343,2,2022-09-15T20:48:12.612349,682617,-5545,656,-861,-9559,1255,-374,96,396,-184
344,2,2022-09-15T20:48:12.619323,682626,-5528,652,-851,-10056,1012,-428,87,389,-195
345,2,2022-09-15T20:48:12.627362,682634,-5528,652,-851,-10056,1012,-428,87,389,-195
346,2,2022-09-15T20:48:12.632750,682639,-5528,652,-851,-10056,1012,-428,87,389,-195
347,2,2022-09-15T20:48:12.640726,682646,-5517,649,-839,-10516,948,-464,87,389,-195
348,2,2022-09-15T20:48:12.650040,682656,-5517,649,-839,-10516,948,-464,87,389,-195
349,2,2022-09-15T20:48:12.656140,682661,-5517,649,-839,-10516,948,-464,87,389,-195
350,2,2022-09-15T20:48:12.664862,682670,-5502,650,-843,-10975,1004,-488,87,389,-195
351,2,2022-09-15T20:48:12.674632,682681,-5502,650,-843,-10975,1004,-488,87,389,-195
352,2,2022-09-15T20:48:12.682188,682688,-5480,653,-834,-11461,1126,-543,87,389,-195
353,2,2022-09-15T20:48:12.693124,682698,-5480,653,-834,-11461,1126,-543,87,389,-195
354,2,2022-09-15T20:48:12.700916,682706,-5470,657,-838,-11987,1349,-568,87,389,-195
355,2,2022-09-15T20:48:12.707091,682713,-5470,657,-838,-11987,1349,-568,87,389,-195
356,2,2022-09-15T20:48:12.714088,682719,-5470,657,-838,-11987,1349,-568,87,389,-195
357,2,2022-09-15T20:48:12.721537,682727,-5467,667,-835,-12544,1580,-555,87,389,-195
358,2,2022-09-15T20:48:12.730892,682737,-5467,667,-835,-12544,1580,-555,87,389,-195
359,2,2022-09-15T20:48:12.738291,682742,-5467,667,-835,-12544,1580,-555,87,389,-195
360,2,2022-09-15T20:48:12.747600,682754,-5469,675,-841,-13145,1784,-521,80,396,-196
361,2,2022-09-15T20:48:12.758863,682765,-5469,675,-841,-13145,1784,-521,80,396,-196
362,2,2022-09-15T20:48:12.771635,682777,-5469,670,-851,-13750,1974,-490,80,396,-196
363,2,2022-09-15T20:48:12.782669,682788,-5487,659,-860,-14286,2113,-514,80,396,-196
364,2,2022-09-15T20:48:12.789663,682795,-5487,659,-860,-14286,2113,-514,80,396,-196
365,2,2022-09-15T20:48:12.796386,682802,-5487,659,-860,-14286,2113,-514,80,396,-196
366,2,2022-09-15T20:48:12.805426,682811,-5501,644,-873,-14729,2197,-613,80,396,-196
367,2,2022-09-15T20:48:12.815562,682820,-5501,644,-873,-14729,2197,-613,80,396,-196
368,2,2022-09-15T20:48:12.823074,682828,-5518,624,-886,-15049,2248,-756,80,396,-196
369,2,2022-09-15T20:48:12.830460,682835,-5518,624,-886,-15049,2248,-756,80,396,-196
370,2,2022-09-15T20:48:12.837017,682843,-5518,624,-886,-15049,2248,-756,80,396,-196
371,2,2022-09-15T20:48:12.843755,682850,-5525,610,-891,-15256,2225,-969,80,396,-196
372,2,2022-09-15T20:48:12.854551,682860,-5525,610,-891,-15256,2225,-969,80,396,-196
373,2,2022-09-15T20:48:12.862089,682867,-5530,600,-892,-15400,2169,-1213,62,384,-192
374,2,2022-09-15T20:48:12.876148,682882,-5530,600,-892,-15400,2169,-1213,62,384,-192
375,2,2022-09-15T20:48:12.883205,682889,-5535,581,-889,-15515,2086,-1413,62,384,-192
376,2,2022-09-15T20:48:12.893748,682900,-5535,581,-889,-15515,2086,-1413,62,384,-192
377,2,2022-09-15T20:48:12.901349,682907,-5543,564,-887,-15601,1986,-1568,62,384,-192
378,2,2022-09-15T20:48:12.907753,682913,-5543,564,-887,-15601,1986,-1568,62,384,-192
379,2,2022-09-15T20:48:12.913739,682919,-5543,564,-887,-15601,1986,-1568,62,384,-192
380,2,2022-09-15T20:48:12.922034,682928,-5540,544,-878,-15661,1881,-1726,62,384,-192
381,2,2022-09-15T20:48:12.930565,682937,-5540,544,-878,-15661,1881,-1726,62,384,-192
382,2,2022-09-15T20:48:12.936148,682942,-5540,544,-878,-15661,1881,-1726,62,384,-192
383,2,2022-09-15T20:48:12.947875,682953,-5529,528,-865,-15697,1807,-1856,62,384,-192
384,2,2022-09-15T20:48:12.953507,682959,-5529,528,-865,-15697,1807,-1856,62,384,-192
385,2,2022-09-15T20:48:12.959808,682966,-5517,517,-857,-15708,1740,-1914,62,384,-192
386,2,2022-09-15T20:48:12.970185,682976,-5517,517,-857,-15708,1740,-1914,62,384,-192
387,2,2022-09-15T20:48:12.975289,682981,-5517,517,-857,-15708,1740,-1914,62,384,-192
388,2,2022-09-15T20:48:12.982353,682988,-5517,517,-857,-15708,1740,-1914,54,384,-200
389,2,2022-09-15T20:48:12.992739,682998,-5517,517,-857,-15708,1740,-1914,54,384,-200
390,2,2022-09-15T20:48:12.999353,683005,-5517,518,-833,-15872,1738,-1889,54,384,-200
391,2,2022-09-15T20:48:13.005218,683011,-5517,518,-833,-15872,1738,-1889,54,384,-200
392,2,2022-09-15T20:48:13.011569,683017,-5517,518,-833,-15872,1738,-1889,54,384,-200
393,2,2022-09-15T20:48:13.019179,683025,-5500,517,-829,-16032,1731,-1781,54,384,-200
394,2,2022-09-15T20:48:13.028651,683034,-5500,517,-829,-16032,1731,-1781,54,384,-200
395,2,2022-09-15T20:48:13.036033,683040,-5500,517,-829,-16032,1731,-1781,54,384,-200
396,2,2022-09-15T20:48:13.044793,683049,-5495,520,-829,-16194,1801,-1607,54,384,-200
397,2,2022-09-15T20:48:13.050562,683056,-5495,520,-829,-16194,1801,-1607,54,384,-200
398,2,2022-09-15T20:48:13.056241,683062,-5495,520,-829,-16194,1801,-1607,54,384,-200
399,2,2022-09-15T20:48:13.064131,683069,-5500,519,-838,-16333,1916,-1452,54,384,-200
400,2,2022-09-15T20:48:13.072520,683078,-5500,519,-838,-16333,1916,-1452,54,384,-200
401,2,2022-09-15T20:48:13.079539,683085,-5507,522,-832,-16497,2057,-1409,54,384,-200
402,2,2022-09-15T20:48:13.094368,683100,-5507,522,-832,-16497,2057,-1409,54,384,-200
403,2,2022-09-15T20:48:13.101217,683107,-5521,511,-841,-16659,2193,-1475,47,393,-195
404,2,2022-09-15T20:48:13.110853,683115,-5521,511,-841,-16659,2193,-1475,47,393,-195
405,2,2022-09-15T20:48:13.120351,683125,-5521,511,-841,-16659,2193,-1475,47,393,-195
406,2,2022-09-15T20:48:13.130023,683136,-5538,498,-843,-16762,2222,-1624,47,393,-195
407,2,2022-09-15T20:48:13.137337,683142,-5538,498,-843,-16762,2222,-1624,47,393,-195
408,2,2022-09-15T20:48:13.146828,683153,-5542,488,-850,-16775,2210,-1834,47,393,-195
409,2,2022-09-15T20:48:13.157843,683163,-5542,488,-850,-16775,2210,-1834,47,393,-195
410,2,2022-09-15T20:48:13.167709,683173,-5550,476,-852,-16797,2233,-2080,47,393,-195
411,2,2022-09-15T20:48:13.177217,683183,-5550,476,-852,-16797,2233,-2080,47,393,-195
412,2,2022-09-15T20:48:13.184558,683190,-5558,449,-859,-16804,2279,-2346,47,393,-195
413,2,2022-09-15T20:48:13.198954,683205,-5558,449,-859,-16804,2279,-2346,47,393,-195
414,2,2022-09-15T20:48:13.206796,683212,-5560,423,-868,-16776,2305,-2616,47,393,-195
415,2,2022-09-15T20:48:13.213148,683218,-5560,423,-868,-16776,2305,-2616,47,393,-195
416,2,2022-09-15T20:48:13.222708,683228,-5548,396,-857,-16693,2246,-2851,47,393,-195
417,2,2022-09-15T20:48:13.232686,683238,-5548,396,-857,-16693,2246,-2851,47,393,-195
418,2,2022-09-15T20:48:13.241311,683247,-5546,376,-854,-16566,2103,-2983,26,374,-180
419,2,2022-09-15T20:48:13.248408,683254,-5546,376,-854,-16566,2103,-2983,26,374,-180
420,2,2022-09-15T20:48:13.253865,683259,-5546,376,-854,-16566,2103,-2983,26,374,-180
421,2,2022-09-15T20:48:13.260636,683267,-5541,364,-860,-16397,1970,-2967,26,374,-180
422,2,2022-09-15T20:48:13.267992,683274,-5541,364,-860,-16397,1970,-2967,26,374,-180
423,2,2022-09-15T20:48:13.273591,683280,-5541,364,-860,-16397,1970,-2967,26,374,-180
424,2,2022-09-15T20:48:13.281418,683287,-5534,349,-847,-16219,1857,-2861,26,374,-180
425,2,2022-09-15T20:48:13.291492,683296,-5534,349,-847,-16219,1857,-2861,26,374,-180
426,2,2022-09-15T20:48:13.297947,683303,-5534,349,-847,-16219,1857,-2861,26,374,-180
427,2,2022-09-15T20:48:13.304961,683311,-5522,340,-845,-16064,1746,-2709,26,374,-180
428,2,2022-09-15T20:48:13.311043,683317,-5522,340,-845,-16064,1746,-2709,26,374,-180
429,2,2022-09-15T20:48:13.317035,683323,-5522,340,-845,-16064,1746,-2709,26,374,-180
430,2,2022-09-15T20:48:13.325129,683331,-5508,334,-846,-15889,1676,-2486,26,374,-180
431,2,2022-09-15T20:48:13.332248,683338,-5508,334,-846,-15889,1676,-2486,26,374,-180
432,2,2022-09-15T20:48:13.338914,683344,-5508,334,-846,-15889,1676,-2486,26,374,-180
433,2,2022-09-15T20:48:13.348051,683354,-5515,323,-842,-15643,1572,-2172,26,374,-180
434,2,2022-09-15T20:48:13.353604,683360,-5515,323,-842,-15643,1572,-2172,26,374,-180
435,2,2022-09-15T20:48:13.360918,683366,-5519,326,-834,-15307,1395,-1808,18,386,-166
436,2,2022-09-15T20:48:13.368125,683374,-5519,326,-834,-15307,1395,-1808,18,386,-166
437,2,2022-09-15T20:48:13.373656,683379,-5519,326,-834,-15307,1395,-1808,18,386,-166
438,2,2022-09-15T20:48:13.380339,683386,-5516,337,-823,-14926,1198,-1440,18,386,-166
439,2,2022-09-15T20:48:13.390226,683395,-5516,337,-823,-14926,1198,-1440,18,386,-166
440,2,2022-09-15T20:48:13.397892,683404,-5516,337,-823,-14926,1198,-1440,18,386,-166
441,2,2022-09-15T20:48:13.406102,683411,-5516,369,-806,-14593,1083,-1125,18,386,-166
442,2,2022-09-15T20:48:13.414697,683420,-5516,369,-806,-14593,1083,-1125,18,386,-166
443,2,2022-09-15T20:48:13.423457,683428,-5529,394,-795,-14330,1000,-836,18,386,-166
444,2,2022-09-15T20:48:13.433707,683440,-5529,394,-795,-14330,1000,-836,18,386,-166
445,2,2022-09-15T20:48:13.442249,683448,-5545,413,-778,-14100,882,-640,18,386,-166
446,2,2022-09-15T20:48:13.449772,683455,-5545,413,-778,-14100,882,-640,18,386,-166
447,2,2022-09-15T20:48:13.456679,683461,-5545,413,-778,-14100,882,-640,18,386,-166
448,2,2022-09-15T20:48:13.465550,683470,-5543,430,-762,-13852,735,-573,18,386,-166
449,2,2022-09-15T20:48:13.476373,683482,-5543,430,-762,-13852,735,-573,18,386,-166
450,2,2022-09-15T20:48:13.483396,683490,-5542,441,-735,-13593,669,-585,17,385,-159
451,2,2022-09-15T20:48:13.493756,683499,-5542,441,-735,-13593,669,-585,17,385,-159
452,2,2022-09-15T20:48:13.502103,683507,-5541,447,-726,-13269,619,-608,17,385,-159
453,2,2022-09-15T20:48:13.510991,683515,-5541,447,-726,-13269,619,-608,17,385,-159
454,2,2022-09-15T20:48:13.518292,683524,-5541,447,-726,-13269,619,-608,17,385,-159
455,2,2022-09-15T20:48:13.527957,683534,-5544,449,-716,-12853,527,-656,17,385,-159
456,2,2022-09-15T20:48:13.536020,683541,-5544,449,-716,-12853,527,-656,17,385,-159
457,2,2022-09-15T20:48:13.542443,683548,-5534,457,-698,-12387,438,-692,17,385,-159
458,2,2022-09-15T20:48:13.551644,683557,-5534,457,-698,-12387,438,-692,17,385,-159
459,2,2022-09-15T20:48:13.556963,683563,-5534,457,-698,-12387,438,-692,17,385,-159
460,2,2022-09-15T20:48:13.564372,683570,-5532,475,-686,-11913,448,-684,17,385,-159
461,2,2022-09-15T20:48:13.576192,683582,-5532,475,-686,-11913,448,-684,17,385,-159
462,2,2022-09-15T20:48:13.585490,683591,-5549,480,-672,-11471,498,-671,17,385,-159
463,2,2022-09-15T20:48:13.598596,683604,-5549,480,-672,-11471,498,-671,17,385,-159
464,2,2022-09-15T20:48:13.608769,683615,-5549,476,-670,-11006,513,-746,21,383,-141
465,2,2022-09-15T20:48:13.615733,683620,-5549,476,-670,-11006,513,-746,21,383,-141
466,2,2022-09-15T20:48:13.624042,683629,-5545,474,-664,-10489,502,-876,21,383,-141
467,2,2022-09-15T20:48:13.632359,683638,-5545,474,-664,-10489,502,-876,21,383,-141
468,2,2022-09-15T20:48:13.640204,683644,-5545,474,-664,-10489,502,-876,21,383,-141
469,2,2022-09-15T20:48:13.649616,683656,-5543,467,-660,-9915,477,-983,21,383,-141
470,2,2022-09-15T20:48:13.656025,683662,-5543,467,-660,-9915,477,-983,21,383,-141
471,2,2022-09-15T20:48:13.663930,683669,-5551,469,-649,-9302,428,-1015,21,383,-141
472,2,2022-09-15T20:48:13.674473,683680,-5551,469,-649,-9302,428,-1015,21,383,-141
473,2,2022-09-15T20:48:13.680784,683685,-5547,465,-642,-8675,371,-1003,21,383,-141
474,2,2022-09-15T20:48:13.692106,683698,-5547,465,-642,-8675,371,-1003,21,383,-141
475,2,2022-09-15T20:48:13.697679,683704,-5547,465,-642,-8675,371,-1003,21,383,-141
476,2,2022-09-15T20:48:13.704329,683710,-5543,454,-629,-8034,268,-1013,21,383,-141
477,2,2022-09-15T20:48:13.713148,683718,-5543,454,-629,-8034,268,-1013,21,383,-141
478,2,2022-09-15T20:48:13.719772,683725,-5549,446,-629,-7349,170,-1032,21,383,-141
479,2,2022-09-15T20:48:13.728146,683734,-5549,446,-629,-7349,170,-1032,19,387,-131
480,2,2022-09-15T20:48:13.734611,683741,-5549,446,-629,-7349,170,-1032,19,387,-131
481,2,2022-09-15T20:48:13.744969,683751,-5557,436,-612,-6610,42,-1053,19,387,-131
482,2,2022-09-15T20:48:13.753700,683760,-5557,436,-612,-6610,42,-1053,19,387,-131
483,2,2022-09-15T20:48:13.761029,683766,-5547,436,-607,-5797,-140,-976,19,387,-131
484,2,2022-09-15T20:48:13.771213,683778,-5547,436,-607,-5797,-140,-976,19,387,-131
485,2,2022-09-15T20:48:13.777368,683783,-5547,436,-607,-5797,-140,-976,19,387,-131
486,2,2022-09-15T20:48:13.784038,683790,-5551,436,-597,-4931,-315,-780,19,387,-131
487,2,2022-09-15T20:48:13.795464,683801,-5551,436,-597,-4931,-315,-780,19,387,-131
488,2,2022-09-15T20:48:13.805290,683811,-5557,431,-586,-4014,-508,-540,19,387,-131
489,2,2022-09-15T20:48:13.811900,683816,-5557,431,-586,-4014,-508,-540,19,387,-131
490,2,2022-09-15T20:48:13.818718,683825,-5557,431,-586,-4014,-508,-540,19,387,-131
491,2,2022-09-15T20:48:13.830102,683836,-5548,430,-575,-3055,-764,-344,19,387,-131
492,2,2022-09-15T20:48:13.836328,683841,-5548,430,-575,-3055,-764,-344,19,387,-131
493,2,2022-09-15T20:48:13.845879,683852,-5546,424,-562,-2039,-987,-223,19,387,-131
494,2,2022-09-15T20:48:13.858803,683864,-5546,424,-562,-2039,-987,-223,19,387,-131
495,2,2022-09-15T20:48:13.869818,683876,-5545,430,-548,-983,-1221,-166,23,383,-121
496,2,2022-09-15T20:48:13.878951,683884,-5545,430,-548,-983,-1221,-166,23,383,-121
497,2,2022-09-15T20:48:13.888671,683893,-5540,433,-536,79,-1429,-82,23,383,-121
498,2,2022-09-15T20:48:13.899324,683905,-5540,433,-536,79,-1429,-82,23,383,-121
499,2,2022-09-15T20:48:13.908978,683915,-5530,436,-530,1135,-1574,55,23,383,-121
500,2,2022-09-15T20:48:13.915112,683921,-5530,436,-530,1135,-1574,55,23,383,-121
501,2,2022-09-15T20:48:13.922949,683929,-5528,438,-528,2228,-1674,198,23,383,-121
502,2,2022-09-15T20:48:13.932151,683938,-5528,438,-528,2228,-1674,198,23,383,-121
503,2,2022-09-15T20:48:13.938723,683944,-5528,438,-528,2228,-1674,198,23,383,-121
504,2,2022-09-15T20:48:13.947206,683954,-5511,442,-519,3358,-1830,328,23,383,-121
505,2,2022-09-15T20:48:13.952446,683959,-5511,442,-519,3358,-1830,328,23,383,-121
506,2,2022-09-15T20:48:13.957895,683964,-5511,442,-519,3358,-1830,328,23,383,-121
507,2,2022-09-15T20:48:13.968943,683975,-5494,455,-511,4490,-1992,428,23,383,-121
508,2,2022-09-15T20:48:13.974772,683980,-5494,455,-511,4490,-1992,428,23,383,-121
509,2,2022-09-15T20:48:13.984254,683991,-5469,473,-504,5571,-2096,582,22,382,-124
510,2,2022-09-15T20:48:13.997141,684003,-5469,473,-504,5571,-2096,582,22,382,-124
511,2,2022-09-15T20:48:14.005880,684011,-5460,488,-508,6604,-2092,835,22,382,-124
512,2,2022-09-15T20:48:14.014962,684020,-5460,488,-508,6604,-2092,835,22,382,-124
513,2,2022-09-15T20:48:14.019879,684026,-5453,513,-515,7553,-2016,1095,22,382,-124
514,2,2022-09-15T20:48:14.028401,684035,-5453,513,-515,7553,-2016,1095,22,382,-124
515,2,2022-09-15T20:48:14.038635,684044,-5453,513,-515,7553,-2016,1095,22,382,-124
516,2,2022-09-15T20:48:14.049496,684055,-5451,539,-526,8404,-1827,1344,22,382,-124
517,2,2022-09-15T20:48:14.055147,684061,-5451,539,-526,8404,-1827,1344,22,382,-124
518,2,2022-09-15T20:48:14.061694,684067,-5472,563,-536,9118,-1595,1532,22,382,-124
519,2,2022-09-15T20:48:14.068668,684075,-5472,563,-536,9118,-1595,1532,22,382,-124
520,2,2022-09-15T20:48:14.074194,684081,-5472,563,-536,9118,-1595,1532,22,382,-124
521,2,2022-09-15T20:48:14.082839,684089,-5496,581,-550,9710,-1431,1625,22,382,-124
522,2,2022-09-15T20:48:14.093496,684099,-5496,581,-550,9710,-1431,1625,22,382,-124
523,2,2022-09-15T20:48:14.099965,684105,-5496,581,-550,9710,-1431,1625,22,382,-124
524,2,2022-09-15T20:48:14.108042,684114,-5514,596,-562,10217,-1380,1609,19,385,-129
525,2,2022-09-15T20:48:14.113630,684120,-5514,596,-562,10217,-1380,1609,19,385,-129
526,2,2022-09-15T20:48:14.121401,684127,-5515,612,-581,10616,-1365,1485,19,385,-129
527,2,2022-09-15T20:48:14.133930,684140,-5515,612,-581,10616,-1365,1485,19,385,-129
528,2,2022-09-15T20:48:14.143051,684149,-5529,608,-600,10961,-1314,1310,19,385,-129
529,2,2022-09-15T20:48:14.153674,684160,-5529,608,-600,10961,-1314,1310,19,385,-129
530,2,2022-09-15T20:48:14.161183,684167,-5547,594,-619,11319,-1320,1090,19,385,-129
531,2,2022-09-15T20:48:14.173755,684180,-5547,594,-619,11319,-1320,1090,19,385,-129
532,2,2022-09-15T20:48:14.183242,684189,-5560,575,-636,11725,-1414,826,19,385,-129
533,2,2022-09-15T20:48:14.191691,684194,-5560,575,-636,11725,-1414,826,19,385,-129
534,2,2022-09-15T20:48:14.199354,684206,-5560,575,-636,11725,-1414,826,19,385,-129
535,2,2022-09-15T20:48:14.209632,684216,-5565,557,-654,12200,-1546,502,19,385,-129
536,2,2022-09-15T20:48:14.221524,684228,-5575,543,-658,12715,-1724,193,8,388,-142
537,2,2022-09-15T20:48:14.232902,684239,-5575,543,-658,12715,-1724,193,8,388,-142
538,2,2022-09-15T20:48:14.239088,684244,-5575,543,-658,12715,-1724,193,8,388,-142
539,2,2022-09-15T20:48:14.249694,684256,-5576,528,-662,13231,-1987,-25,8,388,-142
540,2,2022-09-15T20:48:14.257187,684263,-5576,528,-662,13231,-1987,-25,8,388,-142
541,2,2022-09-15T20:48:14.264659,684270,-5574,512,-671,13741,-2258,-146,8,388,-142
542,2,2022-09-15T20:48:14.270763,684276,-5574,512,-671,13741,-2258,-146,8,388,-142
543,2,2022-09-15T20:48:14.276729,684282,-5574,512,-671,13741,-2258,-146,8,388,-142
544,2,2022-09-15T20:48:14.284917,684291,-5566,504,-669,14210,-2509,-198,8,388,-142
545,2,2022-09-15T20:48:14.297932,684304,-5566,504,-669,14210,-2509,-198,8,388,-142
546,2,2022-09-15T20:48:14.304937,684310,-5557,490,-660,14638,-2697,-200,8,388,-142
547,2,2022-09-15T20:48:14.314016,684319,-5557,490,-660,14638,-2697,-200,8,388,-142
548,2,2022-09-15T20:48:14.321975,684327,-5539,493,-651,15023,-2900,-135,8,388,-142
549,2,2022-09-15T20:48:14.328609,684334,-5539,493,-651,15023,-2900,-135,8,388,-142
550,2,2022-09-15T20:48:14.336517,684341,-5539,493,-651,15023,-2900,-135,8,388,-142
551,2,2022-09-15T20:48:14.344069,684350,-5525,486,-650,15358,-3033,51,20,386,-160
552,2,2022-09-15T20:48:14.350889,684356,-5525,486,-650,15358,-3033,51,20,386,-160
553,2,2022-09-15T20:48:14.356331,684362,-5525,486,-650,15358,-3033,51,20,386,-160
554,2,2022-09-15T20:48:14.363126,684368,-5523,492,-646,15631,-3083,302,20,386,-160
555,2,2022-09-15T20:48:14.373640,684380,-5523,492,-646,15631,-3083,302,20,386,-160
556,2,2022-09-15T20:48:14.383607,684388,-5523,501,-645,15798,-3082,486,20,386,-160
557,2,2022-09-15T20:48:14.392956,684399,-5523,501,-645,15798,-3082,486,20,386,-160
558,2,2022-09-15T20:48:14.399188,684405,-5523,501,-645,15798,-3082,486,20,386,-160
559,2,2022-09-15T20:48:14.406316,684412,-5515,510,-642,15834,-3057,541,20,386,-160
560,2,2022-09-15T20:48:14.412246,684418,-5515,510,-642,15834,-3057,541,20,386,-160
561,2,2022-09-15T20:48:14.419716,684426,-5515,510,-642,15834,-3057,541,20,386,-160
562,2,2022-09-15T20:48:14.430208,684436,-5517,510,-643,15781,-2965,550,20,386,-160
563,2,2022-09-15T20:48:14.436498,684442,-5517,510,-643,15781,-2965,550,20,386,-160
564,2,2022-09-15T20:48:14.444904,684450,-5542,517,-646,15686,-2886,511,20,386,-160
565,2,2022-09-15T20:48:14.455452,684461,-5542,517,-646,15686,-2886,511,20,386,-160
566,2,2022-09-15T20:48:14.463718,684469,-5542,519,-648,15526,-2842,367,20,386,-160
567,2,2022-09-15T20:48:14.473489,684479,-5542,519,-648,15526,-2842,367,20,386,-160
568,2,2022-09-15T20:48:14.479835,684486,-5542,519,-648,15526,-2842,367,20,386,-160
569,2,2022-09-15T20:48:14.488718,684494,-5546,514,-637,15372,-2761,199,22,386,-162
570,2,2022-09-15T20:48:14.498852,684505,-5546,514,-637,15372,-2761,199,22,386,-162
571,2,2022-09-15T20:48:14.509839,684516,-5558,506,-649,15258,-2682,20,22,386,-162
572,2,2022-09-15T20:48:14.518024,684523,-5558,506,-649,15258,-2682,20,22,386,-162
573,2,2022-09-15T20:48:14.529250,684535,-5565,483,-656,15227,-2653,-197,22,386,-162
574,2,2022-09-15T20:48:14.536933,684541,-5565,483,-656,15227,-2653,-197,22,386,-162
575,2,2022-09-15T20:48:14.544903,684551,-5554,468,-654,15285,-2659,-449,22,386,-162
576,2,2022-09-15T20:48:14.551463,684557,-5554,468,-654,15285,-2659,-449,22,386,-162
577,2,2022-09-15T20:48:14.556913,684563,-5554,468,-654,15285,-2659,-449,22,386,-162
578,2,2022-09-15T20:48:14.564744,684570,-5550,467,-649,15377,-2591,-632,22,386,-162
579,2,2022-09-15T20:48:14.575106,684581,-5550,467,-649,15377,-2591,-632,22,386,-162
580,2,2022-09-15T20:48:14.581842,684588,-5550,467,-650,15423,-2478,-746,22,386,-162
581,2,2022-09-15T20:48:14.592224,684599,-5550,467,-650,15423,-2478,-746,22,386,-162
582,2,2022-09-15T20:48:14.597662,684604,-5550,467,-650,15423,-2478,-746,22,386,-162
583,2,2022-09-15T20:48:14.604251,684610,-5551,459,-648,15435,-2377,-792,38,384,-174
584,2,2022-09-15T20:48:14.613316,684617,-5551,459,-648,15435,-2377,-792,38,384,-174
585,2,2022-09-15T20:48:14.621042,684626,-5551,459,-648,15435,-2377,-792,38,384,-174
586,2,2022-09-15T20:48:14.629537,684636,-5546,450,-645,15406,-2355,-824,38,384,-174
587,2,2022-09-15T20:48:14.642891,684648,-5544,442,-651,15354,-2350,-819,38,384,-174
588,2,2022-09-15T20:48:14.650420,684656,-5544,442,-651,15354,-2350,-819,38,384,-174
589,2,2022-09-15T20:48:14.656111,684662,-5544,442,-651,15354,-2350,-819,38,384,-174
590,2,2022-09-15T20:48:14.663937,684669,-5524,440,-647,15291,-2333,-785,38,384,-174
591,2,2022-09-15T20:48:14.674037,684680,-5524,440,-647,15291,-2333,-785,38,384,-174
592,2,2022-09-15T20:48:14.683789,684690,-5516,443,-651,15225,-2260,-647,38,384,-174
593,2,2022-09-15T20:48:14.695775,684701,-5516,443,-651,15225,-2260,-647,38,384,-174
594,2,2022-09-15T20:48:14.704154,684710,-5508,449,-648,15139,-2164,-429,38,384,-174
595,2,2022-09-15T20:48:14.714786,684721,-5508,449,-648,15139,-2164,-429,38,384,-174
596,2,2022-09-15T20:48:14.721818,684728,-5508,454,-648,15035,-2099,-185,46,386,-174
597,2,2022-09-15T20:48:14.730299,684736,-5508,454,-648,15035,-2099,-185,46,386,-174
598,2,2022-09-15T20:48:14.735571,684742,-5508,454,-648,15035,-2099,-185,46,386,-174
599,2,2022-09-15T20:48:14.743605,684749,-5508,461,-655,14955,-2104,23,46,386,-174
600,2,2022-09-15T20:48:14.753148,684759,-5508,461,-655,14955,-2104,23,46,386,-174
601,2,2022-09-15T20:48:14.761999,684768,-5498,478,-664,14880,-2118,222,46,386,-174
602,2,2022-09-15T20:48:14.770479,684776,-5498,478,-664,14880,-2118,222,46,386,-174
603,2,2022-09-15T20:48:14.776490,684782,-5498,478,-664,14880,-2118,222,46,386,-174
604,2,2022-09-15T20:48:14.783094,684789,-5489,508,-665,14778,-2115,453,46,386,-174
605,2,2022-09-15T20:48:14.790865,684796,-5489,508,-665,14778,-2115,453,46,386,-174
606,2,2022-09-15T20:48:14.798622,684805,-5489,508,-665,14778,-2115,453,46,386,-174
607,2,2022-09-15T20:48:14.808413,684814,-5497,536,-657,14612,-2062,670,46,386,-174
608,2,2022-09-15T20:48:14.814734,684820,-5497,536,-657,14612,-2062,670,46,386,-174
609,2,2022-09-15T20:48:14.824010,684830,-5501,559,-658,14395,-2066,865,46,386,-174
610,2,2022-09-15T20:48:14.833241,684839,-5501,559,-658,14395,-2066,865,46,386,-174
611,2,2022-09-15T20:48:14.839550,684845,-5501,559,-658,14395,-2066,865,46,386,-174
612,2,2022-09-15T20:48:14.848994,684855,-5496,581,-655,14152,-2089,998,62,392,-184
613,2,2022-09-15T20:48:14.858828,684865,-5496,581,-655,14152,-2089,998,62,392,-184
614,2,2022-09-15T20:48:14.869910,684875,-5492,599,-654,13894,-2065,1071,62,392,-184
615,2,2022-09-15T20:48:14.876876,684883,-5492,599,-654,13894,-2065,1071,62,392,-184
616,2,2022-09-15T20:48:14.883343,684890,-5501,618,-660,13635,-2038,1095,62,392,-184
617,2,2022-09-15T20:48:14.894025,684899,-5501,618,-660,13635,-2038,1095,62,392,-184
618,2,2022-09-15T20:48:14.899693,684906,-5501,618,-660,13635,-2038,1095,62,392,-184
619,2,2022-09-15T20:48:14.909056,684915,-5503,634,-663,13385,-2058,1049,62,392,-184
620,2,2022-09-15T20:48:14.915807,684920,-5503,634,-663,13385,-2058,1049,62,392,-184
621,2,2022-09-15T20:48:14.927055,684933,-5505,649,-660,13128,-2040,972,62,392,-184
622,2,2022-09-15T20:48:14.935698,684941,-5505,649,-660,13128,-2040,972,62,392,-184
623,2,2022-09-15T20:48:14.945064,684951,-5513,664,-661,12837,-1965,875,62,392,-184
624,2,2022-09-15T20:48:14.955491,684960,-5513,664,-661,12837,-1965,875,62,392,-184
625,2,2022-09-15T20:48:14.962629,684968,-5523,679,-658,12493,-1868,726,69,395,-181
626,2,2022-09-15T20:48:14.973768,684980,-5523,679,-658,12493,-1868,726,69,395,-181
627,2,2022-09-15T20:48:14.980711,684986,-5523,679,-658,12493,-1868,726,69,395,-181
628,2,2022-09-15T20:48:14.989800,684994,-5532,679,-652,12112,-1808,527,69,395,-181
629,2,2022-09-15T20:48:14.997645,685003,-5532,679,-652,12112,-1808,527,69,395,-181
630,2,2022-09-15T20:48:15.007991,685014,-5538,676,-652,11747,-1781,318,69,395,-181
631,2,2022-09-15T20:48:15.020686,685027,-5538,676,-652,11747,-1781,318,69,395,-181
632,2,2022-09-15T20:48:15.031123,685037,-5533,674,-650,11366,-1762,115,69,395,-181
633,2,2022-09-15T20:48:15.038802,685042,-5533,674,-650,11366,-1762,115,69,395,-181
634,2,2022-09-15T20:48:15.046839,685052,-5529,674,-644,10960,-1718,-73,69,395,-181
635,2,2022-09-15T20:48:15.055794,685062,-5529,674,-644,10960,-1718,-73,69,395,-181
636,2,2022-09-15T20:48:15.062822,685069,-5529,671,-645,10542,-1683,-237,69,395,-181
637,2,2022-09-15T20:48:15.072664,685079,-5529,671,-645,10542,-1683,-237,69,395,-181
638,2,2022-09-15T20:48:15.079008,685085,-5529,671,-645,10542,-1683,-237,69,395,-181
639,2,2022-09-15T20:48:15.088787,685094,-5520,662,-645,10113,-1655,-354,69,395,-181
640,2,2022-09-15T20:48:15.095418,685102,-5520,662,-645,10113,-1655,-354,69,395,-181
641,2,2022-09-15T20:48:15.101653,685108,-5506,666,-633,9651,-1584,-437,77,397,-173
642,2,2022-09-15T20:48:15.108006,685114,-5506,666,-633,9651,-1584,-437,77,397,-173
643,2,2022-09-15T20:48:15.113520,685120,-5506,666,-633,9651,-1584,-437,77,397,-173
644,2,2022-09-15T20:48:15.119222,685125,-5506,666,-633,9651,-1584,-437,77,397,-173
645,2,2022-09-15T20:48:15.129254,685135,-5504,671,-630,9112,-1420,-468,77,397,-173
646,2,2022-09-15T20:48:15.136289,685143,-5504,671,-630,9112,-1420,-468,77,397,-173
647,2,2022-09-15T20:48:15.146641,685153,-5505,675,-635,8469,-1226,-459,77,397,-173
648,2,2022-09-15T20:48:15.153802,685159,-5505,675,-635,8469,-1226,-459,77,397,-173
649,2,2022-09-15T20:48:15.159315,685165,-5505,675,-635,8469,-1226,-459,77,397,-173
650,2,2022-09-15T20:48:15.170412,685176,-5496,681,-638,7719,-1015,-437,77,397,-173
651,2,2022-09-15T20:48:15.176037,685181,-5496,681,-638,7719,-1015,-437,77,397,-173
652,2,2022-09-15T20:48:15.182837,685189,-5506,680,-644,6901,-756,-434,77,397,-173
653,2,2022-09-15T20:48:15.194447,685200,-5506,680,-644,6901,-756,-434,77,397,-173
654,2,2022-09-15T20:48:15.200451,685207,-5506,680,-644,6901,-756,-434,77,397,-173
655,2,2022-09-15T20:48:15.208498,685214,-5517,672,-644,6048,-512,-480,77,397,-173
656,2,2022-09-15T20:48:15.216235,685220,-5517,672,-644,6048,-512,-480,77,397,-173
657,2,2022-09-15T20:48:15.223916,685230,-5514,668,-649,5197,-318,-537,82,390,-176
658,2,2022-09-15T20:48:15.231374,685237,-5514,668,-649,5197,-318,-537,82,390,-176
659,2,2022-09-15T20:48:15.240618,685243,-5514,668,-649,5197,-318,-537,82,390,-176
660,2,2022-09-15T20:48:15.247695,685254,-5505,664,-658,4338,-133,-579,82,390,-176
661,2,2022-09-15T20:48:15.254366,685260,-5505,664,-658,4338,-133,-579,82,390,-176
662,2,2022-09-15T20:48:15.260494,685266,-5505,664,-658,4338,-133,-579,82,390,-176
663,2,2022-09-15T20:48:15.268730,685275,-5507,668,-663,3451,85,-595,82,390,-176
664,2,2022-09-15T20:48:15.274302,685280,-5507,668,-663,3451,85,-595,82,390,-176
665,2,2022-09-15T20:48:15.280166,685286,-5507,668,-663,3451,85,-595,82,390,-176
666,2,2022-09-15T20:48:15.291487,685297,-5503,673,-676,2497,323,-580,82,390,-176
667,2,2022-09-15T20:48:15.297479,685303,-5503,673,-676,2497,323,-580,82,390,-176
668,2,2022-09-15T20:48:15.304805,685310,-5502,667,-688,1512,591,-512,82,390,-176
669,2,2022-09-15T20:48:15.310644,685317,-5502,667,-688,1512,591,-512,82,390,-176
670,2,2022-09-15T20:48:15.316781,685323,-5502,667,-688,1512,591,-512,82,390,-176
671,2,2022-09-15T20:48:15.325103,685331,-5492,670,-698,476,822,-495,82,390,-176
672,2,2022-09-15T20:48:15.336888,685341,-5492,670,-698,476,822,-495,82,390,-176
673,2,2022-09-15T20:48:15.346597,685351,-5483,673,-707,-584,1098,-494,94,394,-174
674,2,2022-09-15T20:48:15.356711,685363,-5483,673,-707,-584,1098,-494,94,394,-174
675,2,2022-09-15T20:48:15.362988,685370,-5478,676,-725,-1645,1367,-484,94,394,-174
676,2,2022-09-15T20:48:15.369843,685376,-5478,676,-725,-1645,1367,-484,94,394,-174
677,2,2022-09-15T20:48:15.375690,685382,-5478,676,-725,-1645,1367,-484,94,394,-174
678,2,2022-09-15T20:48:15.382269,685388,-5473,674,-741,-2668,1571,-418,94,394,-174
679,2,2022-09-15T20:48:15.391823,685398,-5473,674,-741,-2668,1571,-418,94,394,-174
680,2,2022-09-15T20:48:15.397921,685404,-5473,674,-741,-2668,1571,-418,94,394,-174
681,2,2022-09-15T20:48:15.405772,685412,-5470,678,-758,-3640,1734,-256,94,394,-174
682,2,2022-09-15T20:48:15.413976,685419,-5470,678,-758,-3640,1734,-256,94,394,-174
683,2,2022-09-15T20:48:15.420757,685426,-5470,678,-758,-3640,1734,-256,94,394,-174
684,2,2022-09-15T20:48:15.431114,685437,-5479,681,-779,-4541,1835,-25,94,394,-174
685,2,2022-09-15T20:48:15.438427,685443,-5479,681,-779,-4541,1835,-25,94,394,-174
686,2,2022-09-15T20:48:15.446821,685453,-5488,679,-792,-5375,1846,166,94,394,-174
687,2,2022-09-15T20:48:15.454175,685460,-5488,679,-792,-5375,1846,166,94,394,-174
688,2,2022-09-15T20:48:15.459739,685466,-5488,679,-792,-5375,1846,166,94,394,-174
689,2,2022-09-15T20:48:15.470323,685476,-5488,694,-801,-6156,1839,289,87,391,-187
690,2,2022-09-15T20:48:15.476741,685483,-5488,694,-801,-6156,1839,289,87,391,-187
691,2,2022-09-15T20:48:15.483413,685490,-5496,710,-815,-6890,1819,377,87,391,-187
692,2,2022-09-15T20:48:15.491296,685495,-5496,710,-815,-6890,1819,377,87,391,-187
693,2,2022-09-15T20:48:15.498629,685505,-5496,710,-815,-6890,1819,377,87,391,-187
694,2,2022-09-15T20:48:15.507172,685513,-5497,715,-820,-7605,1730,491,87,391,-187
695,2,2022-09-15T20:48:15.514904,685518,-5497,715,-820,-7605,1730,491,87,391,-187
696,2,2022-09-15T20:48:15.521691,685528,-5507,718,-818,-8210,1592,647,87,391,-187
697,2,2022-09-15T20:48:15.529942,685536,-5507,718,-818,-8210,1592,647,87,391,-187
698,2,2022-09-15T20:48:15.538622,685544,-5507,718,-818,-8210,1592,647,87,391,-187
699,2,2022-09-15T20:48:15.546331,685552,-5522,725,-827,-8713,1376,767,87,391,-187
700,2,2022-09-15T20:48:15.552893,685559,-5522,725,-827,-8713,1376,767,87,391,-187
701,2,2022-09-15T20:48:15.558603,685564,-5522,725,-827,-8713,1376,767,87,391,-187
702,2,2022-09-15T20:48:15.567331,685573,-5523,731,-821,-9145,1197,813,87,391,-187
703,2,2022-09-15T20:48:15.574598,685581,-5523,731,-821,-9145,1197,813,87,391,-187
704,2,2022-09-15T20:48:15.581650,685587,-5523,731,-821,-9145,1197,813,87,391,-187
705,2,2022-09-15T20:48:15.592087,685598,-5531,725,-807,-9510,1092,740,76,392,-194
706,2,2022-09-15T20:48:15.598452,685604,-5531,725,-807,-9510,1092,740,76,392,-194
707,2,2022-09-15T20:48:15.607460,685614,-5522,709,-785,-9821,1008,507,76,392,-194
708,2,2022-09-15T20:48:15.613392,685619,-5522,709,-785,-9821,1008,507,76,392,-194
709,2,2022-09-15T20:48:15.618428,685625,-5522,709,-785,-9821,1008,507,76,392,-194
710,2,2022-09-15T20:48:15.624110,685630,-5512,707,-777,-10098,987,172,76,392,-194
711,2,2022-09-15T20:48:15.634510,685640,-5512,707,-777,-10098,987,172,76,392,-194
712,2,2022-09-15T20:48:15.642328,685647,-5512,707,-777,-10098,987,172,76,392,-194
713,2,2022-09-15T20:48:15.652696,685658,-5493,722,-764,-10390,1120,-115,76,392,-194
714,2,2022-09-15T20:48:15.663907,685667,-5493,722,-764,-10390,1120,-115,76,392,-194
715,2,2022-09-15T20:48:15.673514,685679,-5482,739,-758,-10793,1331,-275,76,392,-194
716,2,2022-09-15T20:48:15.682595,685688,-5485,744,-766,-11299,1588,-324,76,392,-194
717,2,2022-09-15T20:48:15.696135,685700,-5485,744,-766,-11299,1588,-324,76,392,-194
718,2,2022-09-15T20:48:15.702430,685709,-5482,746,-767,-11914,1866,-385,76,392,-194
719,2,2022-09-15T20:48:15.712118,685718,-5482,746,-767,-11914,1866,-385,76,392,-194
720,2,2022-09-15T20:48:15.720216,685726,-5482,746,-767,-11914,1866,-385,76,392,-194
721,2,2022-09-15T20:48:15.729585,685735,-5485,743,-774,-12585,2093,-478,76,392,-194
722,2,2022-09-15T20:48:15.735197,685742,-5485,743,-774,-12585,2093,-478,76,392,-194
723,2,2022-09-15T20:48:15.742201,685748,-5496,731,-795,-13233,2236,-581,76,392,-194
724,2,2022-09-15T20:48:15.751932,685758,-5496,731,-795,-13233,2236,-581,76,392,-194
725,2,2022-09-15T20:48:15.758707,685764,-5496,731,-795,-13233,2236,-581,76,392,-194
726,2,2022-09-15T20:48:15.767655,685774,-5499,710,-803,-13799,2297,-667,76,392,-194
727,2,2022-09-15T20:48:15.774259,685780,-5499,710,-803,-13799,2297,-667,76,392,-194
728,2,2022-09-15T20:48:15.779949,685787,-5499,710,-803,-13799,2297,-667,76,392,-194
729,2,2022-09-15T20:48:15.788006,685794,-5508,687,-822,-14210,2340,-746,76,392,-194
730,2,2022-09-15T20:48:15.798642,685804,-5508,687,-822,-14210,2340,-746,76,392,-194
731,2,2022-09-15T20:48:15.805796,685811,-5528,665,-825,-14479,2377,-855,76,392,-194
732,2,2022-09-15T20:48:15.817703,685822,-5528,665,-825,-14479,2377,-855,76,392,-194
733,2,2022-09-15T20:48:15.826792,685833,-5532,637,-828,-14644,2360,-1021,76,392,-194
734,2,2022-09-15T20:48:15.834000,685840,-5532,637,-828,-14644,2360,-1021,76,392,-194
735,2,2022-09-15T20:48:15.841416,685847,-5532,637,-828,-14644,2360,-1021,76,392,-194
736,2,2022-09-15T20:48:15.850436,685856,-5542,613,-827,-14680,2244,-1205,48,386,-196
737,2,2022-09-15T20:48:15.859830,685864,-5542,613,-827,-14680,2244,-1205,48,386,-196
738,2,2022-09-15T20:48:15.870075,685876,-5547,587,-824,-14597,2062,-1386,48,386,-196
739,2,2022-09-15T20:48:15.876711,685883,-5547,587,-824,-14597,2062,-1386,48,386,-196
740,2,2022-09-15T20:48:15.884058,685890,-5545,569,-816,-14444,1900,-1529,48,386,-196
741,2,2022-09-15T20:48:15.893776,685899,-5545,569,-816,-14444,1900,-1529,48,386,-196
742,2,2022-09-15T20:48:15.899558,685905,-5545,569,-816,-14444,1900,-1529,48,386,-196
743,2,2022-09-15T20:48:15.909492,685916,-5543,556,-810,-14251,1763,-1613,48,386,-196
744,2,2022-09-15T20:48:15.916772,685921,-5543,556,-810,-14251,1763,-1613,48,386,-196
745,2,2022-09-15T20:48:15.922531,685929,-5527,556,-793,-14129,1683,-1674,48,386,-196
746,2,2022-09-15T20:48:15.933583,685940,-5527,556,-793,-14129,1683,-1674,48,386,-196
747,2,2022-09-15T20:48:15.939682,685945,-5527,556,-793,-14129,1683,-1674,48,386,-196
748,2,2022-09-15T20:48:15.950985,685957,-5532,551,-780,-14107,1667,-1691,48,386,-196
749,2,2022-09-15T20:48:15.957638,685964,-5532,551,-780,-14107,1667,-1691,48,386,-196
750,2,2022-09-15T20:48:15.965096,685971,-5548,547,-760,-14166,1596,-1700,34,390,-190
751,2,2022-09-15T20:48:15.976013,685981,-5548,547,-760,-14166,1596,-1700,34,390,-190
752,2,2022-09-15T20:48:15.983270,685989,-5530,541,-748,-14320,1519,-1795,34,390,-190
753,2,2022-09-15T20:48:15.992035,685998,-5530,541,-748,-14320,1519,-1795,34,390,-190
754,2,2022-09-15T20:48:15.997620,686004,-5530,541,-748,-14320,1519,-1795,34,390,-190
755,2,2022-09-15T20:48:16.004035,686010,-5521,518,-740,-14445,1535,-1912,34,390,-190
756,2,2022-09-15T20:48:16.012867,686018,-5521,518,-740,-14445,1535,-1912,34,390,-190
757,2,2022-09-15T20:48:16.020490,686025,-5521,518,-740,-14445,1535,-1912,34,390,-190
758,2,2022-09-15T20:48:16.029800,686035,-5510,503,-732,-14509,1614,-1996,34,390,-190
759,2,2022-09-15T20:48:16.042078,686049,-5509,487,-733,-14505,1755,-1975,34,390,-190
760,2,2022-09-15T20:48:16.053250,686059,-5509,487,-733,-14505,1755,-1975,34,390,-190
761,2,2022-09-15T20:48:16.058944,686065,-5509,487,-733,-14505,1755,-1975,34,390,-190
762,2,2022-09-15T20:48:16.067903,686074,-5522,480,-739,-14489,1906,-1892,34,390,-190
763,2,2022-09-15T20:48:16.076395,686083,-5522,480,-739,-14489,1906,-1892,34,390,-190
764,2,2022-09-15T20:48:16.088519,686090,-5522,480,-739,-14489,1906,-1892,34,382,-184
765,2,2022-09-15T20:48:16.099558,686105,-5522,480,-739,-14489,1906,-1892,34,382,-184
766,2,2022-09-15T20:48:16.107936,686114,-5525,471,-737,-14422,2012,-1671,34,382,-184
767,2,2022-09-15T20:48:16.115548,686119,-5525,471,-737,-14422,2012,-1671,34,382,-184
768,2,2022-09-15T20:48:16.122328,686129,-5532,470,-745,-14409,1990,-1605,34,382,-184
769,2,2022-09-15T20:48:16.132477,686138,-5532,470,-745,-14409,1990,-1605,34,382,-184
770,2,2022-09-15T20:48:16.142756,686149,-5531,461,-742,-14372,1899,-1502,34,382,-184
771,2,2022-09-15T20:48:16.152496,686158,-5531,461,-742,-14372,1899,-1502,34,382,-184
772,2,2022-09-15T20:48:16.158084,686164,-5531,461,-742,-14372,1899,-1502,34,382,-184
773,2,2022-09-15T20:48:16.165104,686171,-5537,463,-743,-14283,1767,-1350,34,382,-184
774,2,2022-09-15T20:48:16.175372,686182,-5537,463,-743,-14283,1767,-1350,34,382,-184
775,2,2022-09-15T20:48:16.181519,686187,-5537,463,-743,-14283,1767,-1350,34,382,-184
776,2,2022-09-15T20:48:16.193763,686199,-5531,461,-746,-14153,1613,-1167,34,382,-184
777,2,2022-09-15T20:48:16.200889,686206,-5531,461,-746,-14153,1613,-1167,34,382,-184
778,2,2022-09-15T20:48:16.209636,686216,-5535,462,-740,-14006,1454,-1023,30,376,-168
779,2,2022-09-15T20:48:16.216414,686221,-5535,462,-740,-14006,1454,-1023,30,376,-168
780,2,2022-09-15T20:48:16.222295,686229,-5545,463,-724,-13845,1329,-975,30,376,-168
781,2,2022-09-15T20:48:16.234255,686240,-5545,463,-724,-13845,1329,-975,30,376,-168
782,2,2022-09-15T20:48:16.241571,686246,-5545,463,-724,-13845,1329,-975,30,376,-168
783,2,2022-09-15T20:48:16.252340,686258,-5542,463,-717,-13639,1176,-1006,30,376,-168
784,2,2022-09-15T20:48:16.257961,686264,-5542,463,-717,-13639,1176,-1006,30,376,-168
785,2,2022-09-15T20:48:16.265006,686271,-5536,474,-701,-13381,1039,-1029,30,376,-168
786,2,2022-09-15T20:48:16.276158,686282,-5536,474,-701,-13381,1039,-1029,30,376,-168
787,2,2022-09-15T20:48:16.283629,686290,-5523,483,-698,-13140,947,-980,30,376,-168
788,2,2022-09-15T20:48:16.292186,686297,-5523,483,-698,-13140,947,-980,30,376,-168
789,2,2022-09-15T20:48:16.298455,686304,-5523,483,-698,-13140,947,-980,30,376,-168
790,2,2022-09-15T20:48:16.306158,686312,-5520,498,-688,-12941,897,-875,30,376,-168
791,2,2022-09-15T20:48:16.314179,686320,-5520,498,-688,-12941,897,-875,30,376,-168
792,2,2022-09-15T20:48:16.319965,686326,-5520,498,-688,-12941,897,-875,30,376,-168
793,2,2022-09-15T20:48:16.327372,686334,-5528,500,-671,-12751,820,-726,17,383,-159
794,2,2022-09-15T20:48:16.332744,686339,-5528,500,-671,-12751,820,-726,17,383,-159
795,2,2022-09-15T20:48:16.339114,686345,-5528,500,-671,-12751,820,-726,17,383,-159
796,2,2022-09-15T20:48:16.348984,686355,-5536,503,-657,-12514,727,-614,17,383,-159
797,2,2022-09-15T20:48:16.360101,686366,-5536,503,-657,-12514,727,-614,17,383,-159
798,2,2022-09-15T20:48:16.371603,686377,-5537,510,-647,-12255,621,-548,17,383,-159
799,2,2022-09-15T20:48:16.380642,686387,-5537,510,-647,-12255,621,-548,17,383,-159
800,2,2022-09-15T20:48:16.389940,686395,-5531,513,-636,-11994,551,-510,17,383,-159
801,2,2022-09-15T20:48:16.396733,686402,-5531,513,-636,-11994,551,-510,17,383,-159
802,2,2022-09-15T20:48:16.404507,686410,-5535,519,-626,-11711,536,-484,17,383,-159
803,2,2022-09-15T20:48:16.413963,686419,-5535,519,-626,-11711,536,-484,17,383,-159
804,2,2022-09-15T20:48:16.421126,686427,-5535,519,-626,-11711,536,-484,17,383,-159
805,2,2022-09-15T20:48:16.430841,686437,-5524,518,-614,-11410,540,-466,17,383,-159
806,2,2022-09-15T20:48:16.440204,686446,-5524,518,-614,-11410,540,-466,17,383,-159
807,2,2022-09-15T20:48:16.448011,686454,-5528,525,-598,-11076,572,-466,17,383,-159
808,2,2022-09-15T20:48:16.453552,686459,-5528,525,-598,-11076,572,-466,17,383,-159
809,2,2022-09-15T20:48:16.459063,686466,-5528,525,-598,-11076,572,-466,17,383,-159
810,2,2022-09-15T20:48:16.468050,686473,-5526,520,-590,-10685,607,-484,20,384,-152
811,2,2022-09-15T20:48:16.477108,686483,-5526,520,-590,-10685,607,-484,20,384,-152
812,2,2022-09-15T20:48:16.485628,686492,-5515,524,-581,-10259,635,-505,20,384,-152
813,2,2022-09-15T20:48:16.498232,686504,-5515,524,-581,-10259,635,-505,20,384,-152
814,2,2022-09-15T20:48:16.506096,686512,-5512,526,-580,-9796,697,-479,20,384,-152
815,2,2022-09-15T20:48:16.516461,686522,-5512,526,-580,-9796,697,-479,20,384,-152
816,2,2022-09-15T20:48:16.522174,686528,-5512,526,-580,-9796,697,-479,20,384,-152
817,2,2022-09-15T20:48:16.529699,686536,-5514,523,-582,-9297,773,-438,20,384,-152
818,2,2022-09-15T20:48:16.535211,686541,-5514,523,-582,-9297,773,-438,20,384,-152
819,2,2022-09-15T20:48:16.541330,686547,-5514,523,-582,-9297,773,-438,20,384,-152
820,2,2022-09-15T20:48:16.552158,686558,-5523,527,-580,-8796,824,-420,20,384,-152
821,2,2022-09-15T20:48:16.562619,686568,-5523,527,-580,-8796,824,-420,20,384,-152
822,2,2022-09-15T20:48:16.570034,686576,-5528,532,-574,-8306,838,-466,20,384,-152
823,2,2022-09-15T20:48:16.575544,686581,-5528,532,-574,-8306,838,-466,20,384,-152
824,2,2022-09-15T20:48:16.580890,686587,-5528,532,-574,-8306,838,-466,20,384,-152
825,2,2022-09-15T20:48:16.590175,686597,-5528,536,-577,-7826,795,-504,14,374,-136
826,2,2022-09-15T20:48:16.597768,686604,-5528,536,-577,-7826,795,-504,14,374,-136
827,2,2022-09-15T20:48:16.603139,686609,-5533,537,-581,-7316,719,-495,14,374,-136
828,2,2022-09-15T20:48:16.611218,686617,-5533,537,-581,-7316,719,-495,14,374,-136
829,2,2022-09-15T20:48:16.617436,686623,-5533,537,-581,-7316,719,-495,14,374,-136
830,2,2022-09-15T20:48:16.625038,686631,-5541,534,-577,-6779,637,-434,14,374,-136
831,2,2022-09-15T20:48:16.631707,686638,-5541,534,-577,-6779,637,-434,14,374,-136
832,2,2022-09-15T20:48:16.637668,686644,-5541,534,-577,-6779,637,-434,14,374,-136
833,2,2022-09-15T20:48:16.648626,686655,-5551,522,-567,-6182,536,-391,14,374,-136
834,2,2022-09-15T20:48:16.659115,686665,-5551,522,-567,-6182,536,-391,14,374,-136
835,2,2022-09-15T20:48:16.668526,686674,-5558,514,-564,-5548,370,-397,14,374,-136
836,2,2022-09-15T20:48:16.675777,686682,-5558,514,-564,-5548,370,-397,14,374,-136
837,2,2022-09-15T20:48:16.682545,686688,-5558,514,-564,-5548,370,-397,14,374,-136
838,2,2022-09-15T20:48:16.696310,686702,-5563,506,-565,-4900,182,-455,14,374,-136
839,2,2022-09-15T20:48:16.703601,686708,-5563,506,-565,-4900,182,-455,14,374,-136
840,2,2022-09-15T20:48:16.714035,686720,-5568,495,-553,-4180,-9,-529,5,379,-131
841,2,2022-09-15T20:48:16.725524,686732,-5574,476,-535,-3347,-266,-574,5,379,-131
842,2,2022-09-15T20:48:16.734868,686740,-5574,476,-535,-3347,-266,-574,5,379,-131
843,2,2022-09-15T20:48:16.743652,686748,-5574,476,-535,-3347,-266,-574,5,379,-131
844,2,2022-09-15T20:48:16.753207,686759,-5557,463,-532,-2397,-605,-542,5,379,-131
845,2,2022-09-15T20:48:16.760552,686767,-5557,463,-532,-2397,-605,-542,5,379,-131
846,2,2022-09-15T20:48:16.767513,686774,-5549,456,-520,-1297,-892,-407,5,379,-131
847,2,2022-09-15T20:48:16.772833,686779,-5549,456,-520,-1297,-892,-407,5,379,-131
848,2,2022-09-15T20:48:16.778233,686784,-5549,456,-520,-1297,-892,-407,5,379,-131
849,2,2022-09-15T20:48:16.788884,686793,-5528,454,-513,-168,-1188,-285,5,379,-131
850,2,2022-09-15T20:48:16.799092,686804,-5528,454,-513,-168,-1188,-285,5,379,-131
851,2,2022-09-15T20:48:16.808569,686815,-5505,451,-498,991,-1451,-158,5,379,-131
852,2,2022-09-15T20:48:16.818311,686824,-5505,451,-498,991,-1451,-158,5,379,-131
853,2,2022-09-15T20:48:16.824789,686831,-5487,459,-490,2192,-1650,0,16,380,-126
854,2,2022-09-15T20:48:16.833275,686839,-5487,459,-490,2192,-1650,0,16,380,-126
855,2,2022-09-15T20:48:16.839768,686845,-5487,459,-490,2192,-1650,0,16,380,-126
856,2,2022-09-15T20:48:16.853671,686856,-5470,480,-492,3344,-1774,203,16,380,-126
857,2,2022-09-15T20:48:16.865649,686870,-5458,504,-495,4371,-1715,442,16,380,-126
858,2,2022-09-15T20:48:16.876627,686882,-5458,504,-495,4371,-1715,442,16,380,-126
859,2,2022-09-15T20:48:16.881891,686888,-5458,504,-495,4371,-1715,442,16,380,-126
860,2,2022-09-15T20:48:16.890350,686896,-5472,524,-498,5263,-1510,690,16,380,-126
861,2,2022-09-15T20:48:16.900616,686907,-5472,524,-498,5263,-1510,690,16,380,-126
862,2,2022-09-15T20:48:16.908795,686915,-5493,542,-499,6048,-1328,896,16,380,-126
863,2,2022-09-15T20:48:16.916473,686920,-5493,542,-499,6048,-1328,896,16,380,-126
864,2,2022-09-15T20:48:16.925021,686931,-5491,557,-515,6731,-1241,1015,16,380,-126
865,2,2022-09-15T20:48:16.936222,686943,-5491,557,-515,6731,-1241,1015,16,380,-126
866,2,2022-09-15T20:48:16.944295,686949,-5509,578,-528,7313,-1137,1055,17,375,-126
867,2,2022-09-15T20:48:16.954670,686961,-5509,578,-528,7313,-1137,1055,17,375,-133
868,2,2022-09-15T20:48:16.960888,686967,-5509,578,-528,7313,-1137,1055,17,375,-133
869,2,2022-09-15T20:48:16.973365,686980,-5534,591,-533,7748,-1043,1027,17,375,-133
870,2,2022-09-15T20:48:16.979214,686985,-5534,591,-533,7748,-1043,1027,17,375,-133
871,2,2022-09-15T20:48:16.986073,686992,-5548,590,-551,8150,-1129,937,17,375,-133
872,2,2022-09-15T20:48:16.997343,687003,-5548,590,-551,8150,-1129,937,17,375,-133
873,2,2022-09-15T20:48:17.005824,687012,-5549,586,-568,8579,-1350,786,17,375,-133
874,2,2022-09-15T20:48:17.014089,687020,-5549,586,-568,8579,-1350,786,17,375,-133
875,2,2022-09-15T20:48:17.020737,687026,-5549,586,-568,8579,-1350,786,17,375,-133
876,2,2022-09-15T20:48:17.031982,687038,-5546,573,-572,9107,-1531,646,17,375,-133
877,2,2022-09-15T20:48:17.038647,687043,-5546,573,-572,9107,-1531,646,17,375,-133
878,2,2022-09-15T20:48:17.047279,687053,-5552,571,-573,9747,-1721,519,17,375,-133
879,2,2022-09-15T20:48:17.054331,687060,-5552,571,-573,9747,-1721,519,17,375,-133
880,2,2022-09-15T20:48:17.060820,687067,-5552,571,-573,9747,-1721,519,17,375,-133
881,2,2022-09-15T20:48:17.070121,687076,-5558,563,-579,10459,-1959,426,17,375,-133
882,2,2022-09-15T20:48:17.077464,687084,-5558,563,-579,10459,-1959,426,17,375,-133
883,2,2022-09-15T20:48:17.083997,687090,-5551,566,-574,11173,-2224,276,19,383,-143
884,2,2022-09-15T20:48:17.091080,687096,-5551,566,-574,11173,-2224,276,19,383,-143
885,2,2022-09-15T20:48:17.097128,687104,-5551,566,-574,11173,-2224,276,19,383,-143
886,2,2022-09-15T20:48:17.105237,687112,-5546,578,-579,11813,-2450,115,19,383,-143
887,2,2022-09-15T20:48:17.118114,687124,-5546,578,-579,11813,-2450,115,19,383,-143
888,2,2022-09-15T20:48:17.124422,687131,-5538,588,-566,12336,-2582,-18,19,383,-143
889,2,2022-09-15T20:48:17.133505,687139,-5538,588,-566,12336,-2582,-18,19,383,-143
890,2,2022-09-15T20:48:17.139179,687145,-5538,588,-566,12336,-2582,-18,19,383,-143
891,2,2022-09-15T20:48:17.146197,687152,-5533,595,-562,12743,-2666,-122,19,383,-143
892,2,2022-09-15T20:48:17.156765,687163,-5533,595,-562,12743,-2666,-122,19,383,-143
893,2,2022-09-15T20:48:17.165175,687169,-5531,586,-558,13064,-2704,-194,19,383,-143
894,2,2022-09-15T20:48:17.176542,687182,-5531,586,-558,13064,-2704,-194,19,383,-143
895,2,2022-09-15T20:48:17.182998,687190,-5528,583,-556,13313,-2709,-316,19,383,-143
896,2,2022-09-15T20:48:17.194441,687200,-5528,583,-556,13313,-2709,-316,19,383,-143
897,2,2022-09-15T20:48:17.200497,687206,-5528,583,-556,13313,-2709,-316,19,383,-143
898,2,2022-09-15T20:48:17.209633,687216,-5526,576,-554,13503,-2659,-455,14,390,-152
899,2,2022-09-15T20:48:17.217479,687223,-5526,576,-554,13503,-2659,-455,14,390,-152
900,2,2022-09-15T20:48:17.223167,687229,-5526,576,-554,13503,-2659,-455,14,390,-152
901,2,2022-09-15T20:48:17.231188,687238,-5523,568,-553,13660,-2581,-582,14,390,-152
902,2,2022-09-15T20:48:17.238213,687243,-5523,568,-553,13660,-2581,-582,14,390,-152
903,2,2022-09-15T20:48:17.244260,687251,-5516,570,-557,13755,-2502,-668,14,390,-152
904,2,2022-09-15T20:48:17.255878,687262,-5516,570,-557,13755,-2502,-668,14,390,-152
905,2,2022-09-15T20:48:17.261213,687267,-5516,570,-557,13755,-2502,-668,14,390,-152
906,2,2022-09-15T20:48:17.272548,687279,-5520,563,-562,13774,-2392,-694,14,390,-152
907,2,2022-09-15T20:48:17.278595,687285,-5520,563,-562,13774,-2392,-694,14,390,-152
908,2,2022-09-15T20:48:17.285654,687292,-5525,549,-571,13754,-2297,-703,14,390,-152
909,2,2022-09-15T20:48:17.294220,687300,-5525,549,-571,13754,-2297,-703,14,390,-152
910,2,2022-09-15T20:48:17.299387,687306,-5525,549,-571,13754,-2297,-703,14,390,-152
911,2,2022-09-15T20:48:17.307541,687313,-5527,533,-576,13717,-2200,-735,14,390,-152
912,2,2022-09-15T20:48:17.315698,687320,-5527,533,-576,13717,-2200,-735,14,390,-152
913,2,2022-09-15T20:48:17.321712,687328,-5527,533,-576,13717,-2200,-735,14,390,-152
914,2,2022-09-15T20:48:17.330997,687337,-5536,521,-582,13649,-2090,-825,28,380,-160
915,2,2022-09-15T20:48:17.339599,687345,-5536,521,-582,13649,-2090,-825,28,380,-160
916,2,2022-09-15T20:48:17.349037,687355,-5528,511,-588,13572,-1993,-937,28,380,-160
917,2,2022-09-15T20:48:17.355287,687361,-5528,511,-588,13572,-1993,-937,28,380,-160
918,2,2022-09-15T20:48:17.362834,687368,-5528,511,-588,13572,-1993,-937,28,380,-160
919,2,2022-09-15T20:48:17.371431,687378,-5524,495,-594,13510,-1907,-1022,28,380,-160
920,2,2022-09-15T20:48:17.377144,687383,-5524,495,-594,13510,-1907,-1022,28,380,-160
921,2,2022-09-15T20:48:17.382676,687389,-5524,495,-594,13510,-1907,-1022,28,380,-160
922,2,2022-09-15T20:48:17.393464,687399,-5546,483,-599,13497,-1843,-1042,28,380,-160
923,2,2022-09-15T20:48:17.399741,687406,-5546,483,-599,13497,-1843,-1042,28,380,-160
924,2,2022-09-15T20:48:17.408178,687415,-5561,482,-605,13481,-1845,-1027,28,380,-160
925,2,2022-09-15T20:48:17.419582,687424,-5561,482,-605,13481,-1845,-1027,28,380,-160
926,2,2022-09-15T20:48:17.426126,687432,-5551,479,-611,13460,-1884,-991,28,380,-160
927,2,2022-09-15T20:48:17.435386,687441,-5551,479,-611,13460,-1884,-991,28,380,-160
928,2,2022-09-15T20:48:17.440988,687448,-5551,479,-611,13460,-1884,-991,28,380,-160
929,2,2022-09-15T20:48:17.448654,687455,-5549,471,-610,13428,-1898,-927,36,384,-172
930,2,2022-09-15T20:48:17.458004,687464,-5549,471,-610,13428,-1898,-927,36,384,-172
931,2,2022-09-15T20:48:17.465514,687471,-5542,468,-609,13379,-1905,-869,36,384,-172
932,2,2022-09-15T20:48:17.476084,687482,-5542,468,-609,13379,-1905,-869,36,384,-172
933,2,2022-09-15T20:48:17.482351,687489,-5542,468,-609,13379,-1905,-869,36,384,-172
934,2,2022-09-15T20:48:17.493137,687497,-5536,461,-608,13346,-1926,-821,36,384,-172
935,2,2022-09-15T20:48:17.505395,687510,-5528,458,-609,13314,-1978,-797,36,384,-172
936,2,2022-09-15T20:48:17.515323,687520,-5528,458,-609,13314,-1978,-797,36,384,-172
937,2,2022-09-15T20:48:17.523028,687528,-5528,458,-609,13314,-1978,-797,36,384,-172
938,2,2022-09-15T20:48:17.532831,687539,-5519,465,-608,13314,-2044,-721,36,384,-172
939,2,2022-09-15T20:48:17.539464,687545,-5519,465,-608,13314,-2044,-721,36,384,-172
940,2,2022-09-15T20:48:17.550117,687556,-5515,472,-601,13279,-2043,-572,36,384,-172
941,2,2022-09-15T20:48:17.560636,687567,-5515,472,-601,13279,-2043,-572,36,384,-172
942,2,2022-09-15T20:48:17.570782,687577,-5527,474,-597,13203,-1991,-421,56,396,-178
943,2,2022-09-15T20:48:17.576673,687583,-5527,474,-597,13203,-1991,-421,56,396,-178
944,2,2022-09-15T20:48:17.582934,687589,-5527,474,-597,13203,-1991,-421,56,396,-178
945,2,2022-09-15T20:48:17.596415,687602,-5532,476,-599,13099,-1957,-347,56,396,-178
946,2,2022-09-15T20:48:17.605361,687611,-5525,477,-603,13000,-1889,-311,56,396,-178
947,2,2022-09-15T20:48:17.615937,687622,-5525,477,-603,13000,-1889,-311,56,396,-178
948,2,2022-09-15T20:48:17.622144,687628,-5525,477,-603,13000,-1889,-311,56,396,-178
949,2,2022-09-15T20:48:17.631824,687638,-5529,479,-605,12880,-1799,-337,56,396,-178
950,2,2022-09-15T20:48:17.640900,687646,-5529,479,-605,12880,-1799,-337,56,396,-178
951,2,2022-09-15T20:48:17.650646,687656,-5527,492,-604,12714,-1683,-366,56,396,-178
952,2,2022-09-15T20:48:17.656605,687663,-5527,492,-604,12714,-1683,-366,56,396,-178
953,2,2022-09-15T20:48:17.663166,687669,-5527,492,-604,12714,-1683,-366,56,396,-178
954,2,2022-09-15T20:48:17.673979,687680,-5531,497,-604,12527,-1578,-337,56,396,-178
955,2,2022-09-15T20:48:17.682721,687689,-5531,497,-604,12527,-1578,-337,56,396,-178
956,2,2022-09-15T20:48:17.694902,687702,-5524,500,-599,12321,-1578,-261,56,396,-178
957,2,2022-09-15T20:48:17.700406,687707,-5524,500,-599,12321,-1578,-261,56,396,-178
958,2,2022-09-15T20:48:17.708741,687715,-5506,505,-602,12131,-1592,-140,59,399,-171
959,2,2022-09-15T20:48:17.715798,687720,-5506,505,-602,12131,-1592,-140,59,399,-171
960,2,2022-09-15T20:48:17.723269,687729,-5506,505,-602,12131,-1592,-140,59,399,-171
961,2,2022-09-15T20:48:17.732188,687738,-5509,506,-600,11998,-1574,-18,59,399,-171
962,2,2022-09-15T20:48:17.740383,687746,-5509,506,-600,11998,-1574,-18,59,399,-171
963,2,2022-09-15T20:48:17.749284,687756,-5503,513,-601,11881,-1559,53,59,399,-171
964,2,2022-09-15T20:48:17.758031,687764,-5503,513,-601,11881,-1559,53,59,399,-171
965,2,2022-09-15T20:48:17.766299,687771,-5492,525,-596,11777,-1522,99,59,399,-171
966,2,2022-09-15T20:48:17.776624,687783,-5492,525,-596,11777,-1522,99,59,399,-171
967,2,2022-09-15T20:48:17.782499,687789,-5492,525,-596,11777,-1522,99,59,399,-171
968,2,2022-09-15T20:48:17.790223,687796,-5506,540,-595,11665,-1493,156,59,399,-171
969,2,2022-09-15T20:48:17.798148,687804,-5506,540,-595,11665,-1493,156,59,399,-171
970,2,2022-09-15T20:48:17.805486,687811,-5512,557,-597,11523,-1489,227,59,399,-171
971,2,2022-09-15T20:48:17.813434,687819,-5512,557,-597,11523,-1489,227,59,399,-171
972,2,2022-09-15T20:48:17.821487,687827,-5512,557,-597,11523,-1489,227,59,399,-171
973,2,2022-09-15T20:48:17.830149,687836,-5506,576,-590,11333,-1481,286,69,389,-179
974,2,2022-09-15T20:48:17.836075,687843,-5506,576,-590,11333,-1481,286,69,389,-179
975,2,2022-09-15T20:48:17.842401,687848,-5506,576,-590,11333,-1481,286,69,389,-179
976,2,2022-09-15T20:48:17.858498,687864,-5500,591,-588,11110,-1437,341,69,389,-179
977,2,2022-09-15T20:48:17.866789,687872,-5501,595,-591,10871,-1366,387,69,389,-179
978,2,2022-09-15T20:48:17.881146,687887,-5501,595,-591,10871,-1366,387,69,389,-179
979,2,2022-09-15T20:48:17.890803,687897,-5494,614,-600,10627,-1315,381,69,389,-179
980,2,2022-09-15T20:48:17.896822,687903,-5494,614,-600,10627,-1315,381,69,389,-179
981,2,2022-09-15T20:48:17.902303,687908,-5494,614,-600,10627,-1315,381,69,389,-179
982,2,2022-09-15T20:48:17.909299,687916,-5504,627,-599,10382,-1226,376,69,389,-179
983,2,2022-09-15T20:48:17.914896,687921,-5504,627,-599,10382,-1226,376,69,389,-179
984,2,2022-09-15T20:48:17.920636,687927,-5504,627,-599,10382,-1226,376,69,389,-179
985,2,2022-09-15T20:48:17.928227,687935,-5500,641,-603,10050,-1118,370,69,389,-179
986,2,2022-09-15T20:48:17.933772,687940,-5500,641,-603,10050,-1118,370,69,389,-179
987,2,2022-09-15T20:48:17.940397,687945,-5500,641,-603,10050,-1118,370,69,389,-179
988,2,2022-09-15T20:48:17.949551,687955,-5526,651,-601,9661,-987,366,79,397,-179
989,2,2022-09-15T20:48:17.955430,687962,-5526,651,-601,9661,-987,366,79,397,-179
990,2,2022-09-15T20:48:17.962668,687968,-5526,651,-601,9661,-987,366,79,397,-179
991,2,2022-09-15T20:48:17.970012,687976,-5539,652,-605,9177,-870,209,79,397,-179
992,2,2022-09-15T20:48:17.975650,687982,-5539,652,-605,9177,-870,209,79,397,-179
993,2,2022-09-15T20:48:17.982126,687987,-5539,652,-605,9177,-870,209,79,397,-179
994,2,2022-09-15T20:48:17.991423,687996,-5542,645,-621,8613,-685,-102,79,397,-179
995,2,2022-09-15T20:48:17.997330,688004,-5542,645,-621,8613,-685,-102,79,397,-179
996,2,2022-09-15T20:48:18.003083,688010,-5542,645,-621,8613,-685,-102,79,397,-179
997,2,2022-09-15T20:48:18.013816,688020,-5542,637,-628,7992,-466,-499,79,397,-179
998,2,2022-09-15T20:48:18.019605,688026,-5542,637,-628,7992,-466,-499,79,397,-179
999,2,2022-09-15T20:48:18.029021,688035,-5526,632,-635,7400,-284,-824,79,397,-179
1000,2,2022-09-15T20:48:18.035542,688040,-5526,632,-635,7400,-284,-824,79,397,-179
1001,2,2022-09-15T20:48:18.043629,688049,-5526,632,-635,7400,-284,-824,79,397,-179
1002,2,2022-09-15T20:48:18.053732,688059,-5526,618,-643,6878,-248,-943,79,397,-179
1003,2,2022-09-15T20:48:18.062164,688069,-5526,618,-643,6878,-248,-943,79,397,-179
1004,2,2022-09-15T20:48:18.071651,688078,-5503,604,-644,6425,-309,-862,87,393,-175
1005,2,2022-09-15T20:48:18.080980,688088,-5503,604,-644,6425,-309,-862,87,393,-175
1006,2,2022-09-15T20:48:18.089851,688096,-5508,594,-652,6025,-389,-629,87,393,-175
1007,2,2022-09-15T20:48:18.096354,688102,-5508,594,-652,6025,-389,-629,87,393,-175
1008,2,2022-09-15T20:48:18.103839,688110,-5508,594,-652,6025,-389,-629,87,393,-175
1009,2,2022-09-15T20:48:18.113447,688119,-5511,596,-651,5611,-507,-394,87,393,-175
1010,2,2022-09-15T20:48:18.124439,688129,-5511,596,-651,5611,-507,-394,87,393,-175
1011,2,2022-09-15T20:48:18.133440,688140,-5498,607,-644,5212,-604,-132,87,393,-175
1012,2,2022-09-15T20:48:18.141235,688145,-5498,607,-644,5212,-604,-132,87,393,-175
1013,2,2022-09-15T20:48:18.151785,688158,-5497,635,-642,4714,-538,130,87,393,-175
1014,2,2022-09-15T20:48:18.160124,688166,-5497,635,-642,4714,-538,130,87,393,-175
1015,2,2022-09-15T20:48:18.173947,688180,-5495,665,-634,4005,-269,254,87,393,-175
1016,2,2022-09-15T20:48:18.181737,688187,-5495,665,-634,4005,-269,254,87,393,-175
1017,2,2022-09-15T20:48:18.189992,688195,-5483,688,-638,3059,152,196,89,397,-175
1018,2,2022-09-15T20:48:18.199743,688206,-5483,688,-638,3059,152,196,89,397,-175
1019,2,2022-09-15T20:48:18.205382,688211,-5484,704,-645,1959,687,16,89,397,-175
1020,2,2022-09-15T20:48:18.215256,688220,-5484,704,-645,1959,687,16,89,397,-175
1021,2,2022-09-15T20:48:18.221770,688227,-5484,704,-645,1959,687,16,89,397,-175
1022,2,2022-09-15T20:48:18.231489,688237,-5475,718,-653,712,1245,-235,89,397,-175
1023,2,2022-09-15T20:48:18.240646,688246,-5475,718,-653,712,1245,-235,89,397,-175
1024,2,2022-09-15T20:48:18.250496,688257,-5469,719,-686,-634,1773,-473,89,397,-175
1025,2,2022-09-15T20:48:18.256364,688262,-5469,719,-686,-634,1773,-473,89,397,-175
1026,2,2022-09-15T20:48:18.261772,688268,-5469,719,-686,-634,1773,-473,89,397,-175
1027,2,2022-09-15T20:48:18.273429,688280,-5466,710,-714,-1977,2280,-630,89,397,-175
1028,2,2022-09-15T20:48:18.281353,688287,-5466,710,-714,-1977,2280,-630,89,397,-175
1029,2,2022-09-15T20:48:18.290890,688296,-5475,699,-744,-3302,2732,-718,89,397,-175
1030,2,2022-09-15T20:48:18.297014,688304,-5475,699,-744,-3302,2732,-718,89,397,-175
1031,2,2022-09-15T20:48:18.302579,688309,-5475,699,-744,-3302,2732,-718,89,397,-175
1032,2,2022-09-15T20:48:18.313208,688319,-5496,674,-772,-4550,3028,-766,89,397,-175
1033,2,2022-09-15T20:48:18.321324,688326,-5496,674,-772,-4550,3028,-766,89,397,-175
1034,2,2022-09-15T20:48:18.331799,688338,-5518,652,-799,-5626,3107,-801,81,399,-189
1035,2,2022-09-15T20:48:18.341253,688348,-5518,652,-799,-5626,3107,-801,81,399,-189
1036,2,2022-09-15T20:48:18.350868,688357,-5543,625,-828,-6495,2960,-828,81,399,-189
1037,2,2022-09-15T20:48:18.356414,688363,-5543,625,-828,-6495,2960,-828,81,399,-189
1038,2,2022-09-15T20:48:18.361985,688368,-5543,625,-828,-6495,2960,-828,81,399,-189
1039,2,2022-09-15T20:48:18.371629,688378,-5564,591,-843,-7149,2683,-830,81,399,-189
1040,2,2022-09-15T20:48:18.377387,688384,-5564,591,-843,-7149,2683,-830,81,399,-189
1041,2,2022-09-15T20:48:18.382887,688390,-5564,591,-843,-7149,2683,-830,81,399,-189
1042,2,2022-09-15T20:48:18.391188,688397,-5583,561,-847,-7565,2297,-841,81,399,-189
1043,2,2022-09-15T20:48:18.397634,688403,-5583,561,-847,-7565,2297,-841,81,399,-189
1044,2,2022-09-15T20:48:18.405584,688412,-5569,542,-853,-7809,1772,-890,81,399,-189
1045,2,2022-09-15T20:48:18.413136,688419,-5569,542,-853,-7809,1772,-890,81,399,-189
1046,2,2022-09-15T20:48:18.419763,688425,-5569,542,-853,-7809,1772,-890,81,399,-189
1047,2,2022-09-15T20:48:18.428882,688436,-5546,530,-847,-7904,1323,-866,81,399,-189
1048,2,2022-09-15T20:48:18.434228,688441,-5546,530,-847,-7904,1323,-866,81,399,-189
1049,2,2022-09-15T20:48:18.440251,688446,-5546,530,-847,-7904,1323,-866,81,399,-189
1050,2,2022-09-15T20:48:18.448697,688455,-5530,539,-833,-7953,1056,-768,82,388,-198
1051,2,2022-09-15T20:48:18.457226,688463,-5530,539,-833,-7953,1056,-768,82,388,-198
1052,2,2022-09-15T20:48:18.463549,688470,-5530,539,-833,-7953,1056,-768,82,388,-198
1053,2,2022-09-15T20:48:18.468842,688475,-5523,548,-833,-8026,933,-583,82,388,-198
1054,2,2022-09-15T20:48:18.475253,688481,-5523,548,-833,-8026,933,-583,82,388,-198
1055,2,2022-09-15T20:48:18.480882,688487,-5523,548,-833,-8026,933,-583,82,388,-198
1056,2,2022-09-15T20:48:18.489491,688495,-5508,556,-828,-8150,856,-352,82,388,-198
1057,2,2022-09-15T20:48:18.498751,688505,-5508,556,-828,-8150,856,-352,82,388,-198
1058,2,2022-09-15T20:48:18.505864,688512,-5487,568,-817,-8328,836,-130,82,388,-198
1059,2,2022-09-15T20:48:18.516344,688523,-5487,568,-817,-8328,836,-130,82,388,-198
1060,2,2022-09-15T20:48:18.522508,688529,-5487,568,-817,-8328,836,-130,82,388,-198
1061,2,2022-09-15T20:48:18.534408,688541,-5474,590,-812,-8598,897,70,82,388,-198
1062,2,2022-09-15T20:48:18.545165,688551,-5476,604,-814,-8916,1024,247,82,388,-198
1063,2,2022-09-15T20:48:18.556082,688563,-5476,604,-814,-8916,1024,247,82,388,-198
1064,2,2022-09-15T20:48:18.563067,688570,-5476,604,-814,-8916,1024,247,82,388,-198
1065,2,2022-09-15T20:48:18.574906,688581,-5483,605,-815,-9237,1107,367,81,387,-195
1066,2,2022-09-15T20:48:18.580558,688587,-5483,605,-815,-9237,1107,367,81,387,-195
1067,2,2022-09-15T20:48:18.591288,688598,-5486,615,-817,-9524,1161,426,81,387,-195
1068,2,2022-09-15T20:48:18.596725,688603,-5486,615,-817,-9524,1161,426,81,387,-195
1069,2,2022-09-15T20:48:18.601913,688609,-5486,615,-817,-9524,1161,426,81,387,-195
1070,2,2022-09-15T20:48:18.609444,688616,-5493,626,-824,-9791,1202,449,81,387,-195
1071,2,2022-09-15T20:48:18.616657,688621,-5493,626,-824,-9791,1202,449,81,387,-195
1072,2,2022-09-15T20:48:18.622978,688629,-5493,626,-824,-9791,1202,449,81,387,-195
1073,2,2022-09-15T20:48:18.632513,688638,-5510,644,-825,-10056,1227,431,81,387,-195
1074,2,2022-09-15T20:48:18.639443,688645,-5510,644,-825,-10056,1227,431,81,387,-195
1075,2,2022-09-15T20:48:18.647001,688653,-5523,644,-830,-10311,1192,345,81,387,-195
1076,2,2022-09-15T20:48:18.655672,688662,-5523,644,-830,-10311,1192,345,81,387,-195
1077,2,2022-09-15T20:48:18.663441,688668,-5523,644,-830,-10311,1192,345,81,387,-195
1078,2,2022-09-15T20:48:18.671016,688677,-5525,647,-823,-10537,1108,187,81,387,-195
1079,2,2022-09-15T20:48:18.677077,688683,-5525,647,-823,-10537,1108,187,81,387,-195
1080,2,2022-09-15T20:48:18.682699,688689,-5525,647,-823,-10537,1108,187,81,387,-195
1081,2,2022-09-15T20:48:18.692264,688697,-5530,640,-818,-10709,1040,0,60,388,-196
1082,2,2022-09-15T20:48:18.701150,688707,-5530,640,-818,-10709,1040,0,60,388,-196
1083,2,2022-09-15T20:48:18.711024,688717,-5536,631,-812,-10797,978,-183,60,388,-196
1084,2,2022-09-15T20:48:18.719179,688726,-5536,631,-812,-10797,978,-183,60,388,-196
1085,2,2022-09-15T20:48:18.725791,688733,-5533,634,-812,-10845,922,-382,60,388,-196
1086,2,2022-09-15T20:48:18.734035,688741,-5533,634,-812,-10845,922,-382,60,388,-196
1087,2,2022-09-15T20:48:18.739756,688745,-5533,634,-812,-10845,922,-382,60,388,-196
1088,2,2022-09-15T20:48:18.747640,688754,-5538,633,-801,-10916,919,-577,60,388,-196
1089,2,2022-09-15T20:48:18.757445,688763,-5538,633,-801,-10916,919,-577,60,388,-196
1090,2,2022-09-15T20:48:18.763900,688770,-5538,633,-801,-10916,919,-577,60,388,-196
1091,2,2022-09-15T20:48:18.776426,688783,-5531,621,-795,-11020,916,-783,60,388,-196
1092,2,2022-09-15T20:48:18.781969,688788,-5531,621,-795,-11020,916,-783,60,388,-196
1093,2,2022-09-15T20:48:18.791265,688796,-5518,619,-791,-11134,905,-970,60,388,-196
1094,2,2022-09-15T20:48:18.797135,688803,-5518,619,-791,-11134,905,-970,60,388,-196
1095,2,2022-09-15T20:48:18.803604,688809,-5518,619,-791,-11134,905,-970,60,388,-196
1096,2,2022-09-15T20:48:18.811820,688818,-5517,609,-787,-11255,926,-1108,55,389,-197
1097,2,2022-09-15T20:48:18.822489,688829,-5517,609,-787,-11255,926,-1108,55,389,-197
1098,2,2022-09-15T20:48:18.831864,688838,-5521,606,-780,-11430,969,-1220,55,389,-197
1099,2,2022-09-15T20:48:18.839878,688845,-5521,606,-780,-11430,969,-1220,55,389,-197
1100,2,2022-09-15T20:48:18.849640,688856,-5526,595,-773,-11639,968,-1290,55,389,-197
1101,2,2022-09-15T20:48:18.857966,688864,-5526,595,-773,-11639,968,-1290,55,389,-197
1102,2,2022-09-15T20:48:18.864498,688870,-5526,595,-773,-11639,968,-1290,55,389,-197
1103,2,2022-09-15T20:48:18.870979,688877,-5515,583,-766,-11847,883,-1348,55,389,-197
1104,2,2022-09-15T20:48:18.879089,688885,-5515,583,-766,-11847,883,-1348,55,389,-197
1105,2,2022-09-15T20:48:18.885250,688891,-5517,577,-764,-12011,861,-1328,55,389,-197
1106,2,2022-09-15T20:48:18.896864,688903,-5517,577,-764,-12011,861,-1328,55,389,-197
1107,2,2022-09-15T20:48:18.901928,688908,-5517,577,-764,-12011,861,-1328,55,389,-197
1108,2,2022-09-15T20:48:18.913743,688920,-5514,560,-761,-12126,870,-1268,55,389,-197
1109,2,2022-09-15T20:48:18.922022,688928,-5514,560,-761,-12126,870,-1268,55,389,-197
1110,2,2022-09-15T20:48:18.929677,688935,-5524,545,-753,-12172,887,-1226,55,389,-197
1111,2,2022-09-15T20:48:18.935624,688942,-5524,545,-753,-12172,887,-1226,55,389,-197
1112,2,2022-09-15T20:48:18.942687,688948,-5524,545,-753,-12172,887,-1226,55,389,-197
1113,2,2022-09-15T20:48:18.951600,688958,-5516,546,-746,-12203,890,-1245,43,389,-187
1114,2,2022-09-15T20:48:18.961235,688968,-5516,546,-746,-12203,890,-1245,43,389,-187
1115,2,2022-09-15T20:48:18.971542,688977,-5508,555,-742,-12276,943,-1279,43,389,-187
1116,2,2022-09-15T20:48:18.980702,688987,-5508,555,-742,-12276,943,-1279,43,389,-187
1117,2,2022-09-15T20:48:18.991051,688996,-5510,557,-736,-12417,1056,-1267,43,389,-187
1118,2,2022-09-15T20:48:18.997036,689003,-5510,557,-736,-12417,1056,-1267,43,389,-187
1119,2,2022-09-15T20:48:19.003513,689009,-5510,557,-736,-12417,1056,-1267,43,389,-187
1120,2,2022-09-15T20:48:19.013403,689019,-5514,552,-728,-12604,1134,-1247,43,389,-187
1121,2,2022-09-15T20:48:19.019712,689026,-5514,552,-728,-12604,1134,-1247,43,389,-187
1122,2,2022-09-15T20:48:19.027890,689035,-5521,542,-729,-12767,1157,-1206,43,389,-187
1123,2,2022-09-15T20:48:19.033253,689040,-5521,542,-729,-12767,1157,-1206,43,389,-187
1124,2,2022-09-15T20:48:19.039516,689045,-5521,542,-729,-12767,1157,-1206,43,389,-187
1125,2,2022-09-15T20:48:19.046563,689053,-5531,524,-723,-12846,1124,-1165,43,389,-187
1126,2,2022-09-15T20:48:19.060662,689067,-5531,524,-723,-12846,1124,-1165,43,389,-187
1127,2,2022-09-15T20:48:19.071132,689078,-5526,517,-723,-12825,1087,-1146,38,388,-182
1128,2,2022-09-15T20:48:19.076791,689083,-5526,517,-723,-12825,1087,-1146,38,388,-182
1129,2,2022-09-15T20:48:19.082626,689089,-5526,517,-723,-12825,1087,-1146,38,388,-182
1130,2,2022-09-15T20:48:19.090033,689096,-5531,512,-715,-12746,1130,-1167,38,388,-182
1131,2,2022-09-15T20:48:19.098273,689103,-5531,512,-715,-12746,1130,-1167,38,388,-182
1132,2,2022-09-15T20:48:19.105273,689112,-5538,508,-708,-12700,1199,-1262,38,388,-182
1133,2,2022-09-15T20:48:19.113459,689119,-5538,508,-708,-12700,1199,-1262,38,388,-182
1134,2,2022-09-15T20:48:19.123938,689130,-5538,508,-708,-12700,1199,-1262,38,388,-182
1135,2,2022-09-15T20:48:19.133274,689139,-5533,494,-700,-12608,1217,-1377,38,388,-182
1136,2,2022-09-15T20:48:19.142045,689145,-5533,494,-700,-12608,1217,-1377,38,388,-182
1137,2,2022-09-15T20:48:19.149249,689156,-5533,488,-699,-12440,1180,-1441,38,388,-182
1138,2,2022-09-15T20:48:19.159735,689166,-5533,488,-699,-12440,1180,-1441,38,388,-182
1139,2,2022-09-15T20:48:19.168898,689175,-5529,486,-702,-12259,1143,-1466,38,388,-182
1140,2,2022-09-15T20:48:19.176098,689182,-5529,486,-702,-12259,1143,-1466,38,388,-182
1141,2,2022-09-15T20:48:19.182534,689188,-5529,486,-702,-12259,1143,-1466,38,388,-182
1142,2,2022-09-15T20:48:19.191699,689198,-5528,482,-691,-12071,1165,-1416,26,384,-174
1143,2,2022-09-15T20:48:19.197712,689204,-5528,482,-691,-12071,1165,-1416,26,384,-174
1144,2,2022-09-15T20:48:19.203372,689210,-5528,482,-691,-12071,1165,-1416,26,384,-174
1145,2,2022-09-15T20:48:19.211257,689218,-5524,474,-689,-11909,1197,-1333,26,384,-174
1146,2,2022-09-15T20:48:19.219542,689223,-5524,474,-689,-11909,1197,-1333,26,384,-174
1147,2,2022-09-15T20:48:19.226259,689232,-5517,463,-689,-11719,1238,-1307,26,384,-174
1148,2,2022-09-15T20:48:19.237614,689244,-5517,463,-689,-11719,1238,-1307,26,384,-174
1149,2,2022-09-15T20:48:19.244523,689250,-5517,463,-689,-11719,1238,-1307,26,384,-174
1150,2,2022-09-15T20:48:19.254027,689260,-5503,461,-691,-11524,1270,-1309,26,384,-174
1151,2,2022-09-15T20:48:19.262975,689269,-5503,461,-691,-11524,1270,-1309,26,384,-174
1152,2,2022-09-15T20:48:19.273932,689281,-5508,467,-690,-11316,1320,-1217,26,384,-174
1153,2,2022-09-15T20:48:19.283135,689289,-5508,467,-690,-11316,1320,-1217,26,384,-174
1154,2,2022-09-15T20:48:19.289756,689295,-5507,479,-699,-11133,1346,-1007,26,384,-174
1155,2,2022-09-15T20:48:19.297001,689303,-5507,479,-699,-11133,1346,-1007,26,384,-174
1156,2,2022-09-15T20:48:19.302446,689309,-5507,479,-699,-11133,1346,-1007,26,384,-174
1157,2,2022-09-15T20:48:19.310674,689317,-5503,490,-699,-11012,1375,-748,25,379,-163
1158,2,2022-09-15T20:48:19.317228,689323,-5503,490,-699,-11012,1375,-748,25,379,-163
1159,2,2022-09-15T20:48:19.323878,689331,-5503,490,-699,-11012,1375,-748,25,379,-163
1160,2,2022-09-15T20:48:19.333432,689340,-5508,496,-694,-10927,1366,-559,25,379,-163
1161,2,2022-09-15T20:48:19.340855,689346,-5508,496,-694,-10927,1366,-559,25,379,-163
1162,2,2022-09-15T20:48:19.348480,689354,-5506,505,-704,-10826,1266,-411,25,379,-163
1163,2,2022-09-15T20:48:19.361664,689369,-5506,505,-704,-10826,1266,-411,25,379,-163
1164,2,2022-09-15T20:48:19.376302,689383,-5513,515,-702,-10673,1175,-237,25,379,-163
1165,2,2022-09-15T20:48:19.382122,689388,-5513,515,-702,-10673,1175,-237,25,379,-163
1166,2,2022-09-15T20:48:19.390842,689396,-5538,521,-703,-10455,1069,-25,25,379,-163
1167,2,2022-09-15T20:48:19.401737,689409,-5538,521,-703,-10455,1069,-25,25,379,-163
1168,2,2022-09-15T20:48:19.410165,689417,-5549,527,-700,-10154,920,138,25,379,-163
1169,2,2022-09-15T20:48:19.417015,689422,-5549,527,-700,-10154,920,138,25,379,-163
1170,2,2022-09-15T20:48:19.424483,689431,-5549,527,-700,-10154,920,138,25,379,-163
1171,2,2022-09-15T20:48:19.433487,689439,-5550,525,-687,-9767,731,197,21,387,-161
1172,2,2022-09-15T20:48:19.442053,689445,-5550,525,-687,-9767,731,197,21,387,-161
1173,2,2022-09-15T20:48:19.447742,689455,-5550,525,-687,-9767,731,197,21,387,-161
1174,2,2022-09-15T20:48:19.456236,689463,-5550,525,-687,-9767,731,197,21,387,-161
1175,2,2022-09-15T20:48:19.463898,689469,-5550,525,-687,-9767,731,197,21,387,-161
1176,2,2022-09-15T20:48:19.473065,689479,-5541,550,-650,-8848,413,127,21,387,-161
1177,2,2022-09-15T20:48:19.478448,689485,-5541,550,-650,-8848,413,127,21,387,-161
1178,2,2022-09-15T20:48:19.484193,689490,-5541,550,-650,-8848,413,127,21,387,-161
1179,2,2022-09-15T20:48:19.494918,689501,-5543,562,-638,-8387,280,86,21,387,-161
1180,2,2022-09-15T20:48:19.502757,689509,-5543,562,-638,-8387,280,86,21,387,-161
1181,2,2022-09-15T20:48:19.511371,689517,-5534,559,-631,-7903,138,25,21,387,-161
1182,2,2022-09-15T20:48:19.521443,689527,-5534,559,-631,-7903,138,25,21,387,-161
1183,2,2022-09-15T20:48:19.532152,689539,-5525,567,-621,-7396,11,-55,21,387,-161
1184,2,2022-09-15T20:48:19.539392,689545,-5525,567,-621,-7396,11,-55,21,387,-161
1185,2,2022-09-15T20:48:19.546263,689553,-5524,582,-620,-6896,-5,-123,21,387,-161
1186,2,2022-09-15T20:48:19.554155,689560,-5524,582,-620,-6896,-5,-123,21,387,-161
1187,2,2022-09-15T20:48:19.564113,689566,-5524,582,-620,-6896,-5,-123,21,387,-161
1188,2,2022-09-15T20:48:19.574513,689581,-5528,574,-608,-6420,69,-155,19,379,-145
1189,2,2022-09-15T20:48:19.581129,689587,-5528,574,-608,-6420,69,-155,19,379,-145
1190,2,2022-09-15T20:48:19.589969,689596,-5555,558,-602,-5875,115,-209,19,379,-145
1191,2,2022-09-15T20:48:19.599088,689605,-5555,558,-602,-5875,115,-209,19,379,-145
1192,2,2022-09-15T20:48:19.606682,689613,-5574,535,-602,-5215,43,-326,19,379,-145
1193,2,2022-09-15T20:48:19.612624,689618,-5574,535,-602,-5215,43,-326,19,379,-145
1194,2,2022-09-15T20:48:19.620603,689627,-5574,535,-602,-5215,43,-326,19,379,-145
1195,2,2022-09-15T20:48:19.629650,689635,-5558,524,-596,-4428,-140,-492,19,379,-145
1196,2,2022-09-15T20:48:19.636413,689642,-5558,524,-596,-4428,-140,-492,19,379,-145
1197,2,2022-09-15T20:48:19.643177,689649,-5558,524,-596,-4428,-140,-492,19,379,-145
1198,2,2022-09-15T20:48:19.652442,689659,-5546,521,-586,-3576,-311,-626,19,379,-145
1199,2,2022-09-15T20:48:19.658189,689665,-5546,521,-586,-3576,-311,-626,19,379,-145
1200,2,2022-09-15T20:48:19.664834,689670,-5546,521,-586,-3576,-311,-626,19,379,-145
1201,2,2022-09-15T20:48:19.676407,689683,-5535,516,-584,-2726,-425,-696,19,379,-145
1202,2,2022-09-15T20:48:19.684825,689691,-5535,516,-584,-2726,-425,-696,19,379,-145
1203,2,2022-09-15T20:48:19.696715,689702,-5537,505,-573,-1855,-541,-686,15,385,-145
1204,2,2022-09-15T20:48:19.705823,689713,-5531,495,-569,-900,-737,-648,15,385,-145
1205,2,2022-09-15T20:48:19.711520,689718,-5531,495,-569,-900,-737,-648,15,385,-145
1206,2,2022-09-15T20:48:19.719770,689726,-5531,495,-569,-900,-737,-648,15,385,-145
1207,2,2022-09-15T20:48:19.726411,689733,-5515,499,-574,51,-940,-606,15,385,-145
1208,2,2022-09-15T20:48:19.736509,689742,-5515,499,-574,51,-940,-606,15,385,-145
1209,2,2022-09-15T20:48:19.742770,689748,-5515,499,-574,51,-940,-606,15,385,-145
1210,2,2022-09-15T20:48:19.752876,689760,-5517,497,-566,1002,-1050,-501,15,385,-145
1211,2,2022-09-15T20:48:19.760037,689766,-5517,497,-566,1002,-1050,-501,15,385,-145
1212,2,2022-09-15T20:48:19.766570,689772,-5527,496,-559,1897,-1134,-386,15,385,-145
1213,2,2022-09-15T20:48:19.779126,689785,-5527,496,-559,1897,-1134,-386,15,385,-145
1214,2,2022-09-15T20:48:19.785542,689792,-5523,504,-560,2730,-1246,-292,15,385,-145
1215,2,2022-09-15T20:48:19.797657,689804,-5523,504,-560,2730,-1246,-292,15,385,-145
1216,2,2022-09-15T20:48:19.804405,689810,-5523,504,-560,2730,-1246,-292,15,385,-145
1217,2,2022-09-15T20:48:19.814574,689821,-5518,519,-558,3483,-1312,-199,21,381,-139
1218,2,2022-09-15T20:48:19.822590,689828,-5518,519,-558,3483,-1312,-199,21,381,-139
1219,2,2022-09-15T20:48:19.832007,689839,-5503,536,-562,4133,-1330,-66,21,381,-139
1220,2,2022-09-15T20:48:19.839029,689844,-5503,536,-562,4133,-1330,-66,21,381,-139
1221,2,2022-09-15T20:48:19.845847,689852,-5505,540,-552,4671,-1300,77,21,381,-139
1222,2,2022-09-15T20:48:19.857144,689863,-5505,540,-552,4671,-1300,77,21,381,-139
1223,2,2022-09-15T20:48:19.862223,689869,-5505,540,-552,4671,-1300,77,21,381,-139
1224,2,2022-09-15T20:48:19.869461,689876,-5512,537,-558,5164,-1299,159,21,381,-139
1225,2,2022-09-15T20:48:19.875017,689882,-5512,537,-558,5164,-1299,159,21,381,-139
1226,2,2022-09-15T20:48:19.880704,689887,-5512,537,-558,5164,-1299,159,21,381,-139
1227,2,2022-09-15T20:48:19.888933,689896,-5520,539,-558,5662,-1367,224,21,381,-139
1228,2,2022-09-15T20:48:19.894210,689901,-5520,539,-558,5662,-1367,224,21,381,-139
1229,2,2022-09-15T20:48:19.899894,689906,-5520,539,-558,5662,-1367,224,21,381,-139
1230,2,2022-09-15T20:48:19.906614,689912,-5521,542,-559,6179,-1456,322,21,381,-139
1231,2,2022-09-15T20:48:19.918017,689923,-5521,542,-559,6179,-1456,322,21,381,-139
1232,2,2022-09-15T20:48:19.924975,689931,-5521,542,-559,6179,-1456,322,21,381,-139
1233,2,2022-09-15T20:48:19.933576,689940,-5522,556,-560,6697,-1540,420,26,388,-140
1234,2,2022-09-15T20:48:19.939643,689945,-5522,556,-560,6697,-1540,420,26,388,-140
1235,2,2022-09-15T20:48:19.947672,689953,-5533,558,-549,7222,-1628,502,26,388,-140
1236,2,2022-09-15T20:48:19.958833,689966,-5533,558,-549,7222,-1628,502,26,388,-140
1237,2,2022-09-15T20:48:19.965754,689971,-5533,558,-549,7222,-1628,502,26,388,-140
1238,2,2022-09-15T20:48:19.977540,689983,-5540,557,-555,7765,-1777,528,26,388,-140
1239,2,2022-09-15T20:48:19.984299,689990,-5540,557,-555,7765,-1777,528,26,388,-140
1240,2,2022-09-15T20:48:19.994056,690000,-5540,564,-556,8315,-1967,485,26,388,-140
1241,2,2022-09-15T20:48:20.000099,690006,-5540,564,-556,8315,-1967,485,26,388,-140
1242,2,2022-09-15T20:48:20.006418,690013,-5541,564,-546,8866,-2124,415,26,388,-140
1243,2,2022-09-15T20:48:20.016627,690023,-5541,564,-546,8866,-2124,415,26,388,-140
1244,2,2022-09-15T20:48:20.022827,690029,-5541,564,-546,8866,-2124,415,26,388,-140
1245,2,2022-09-15T20:48:20.032090,690038,-5533,565,-552,9404,-2219,305,26,388,-140
1246,2,2022-09-15T20:48:20.042990,690044,-5533,565,-552,9404,-2219,305,26,388,-140
1247,2,2022-09-15T20:48:20.049679,690056,-5545,561,-545,9913,-2276,178,19,375,-153
1248,2,2022-09-15T20:48:20.057672,690064,-5545,561,-545,9913,-2276,178,19,375,-153
1249,2,2022-09-15T20:48:20.063837,690070,-5545,561,-545,9913,-2276,178,19,375,-153
1250,2,2022-09-15T20:48:20.072357,690079,-5539,559,-536,10365,-2326,8,19,375,-153
1251,2,2022-09-15T20:48:20.077875,690084,-5539,559,-536,10365,-2326,8,19,375,-153
1252,2,2022-09-15T20:48:20.083907,690091,-5539,559,-536,10365,-2326,8,19,375,-153
1253,2,2022-09-15T20:48:20.094286,690100,-5527,563,-534,10754,-2333,-174,19,375,-153
1254,2,2022-09-15T20:48:20.100184,690107,-5527,563,-534,10754,-2333,-174,19,375,-153
1255,2,2022-09-15T20:48:20.105565,690112,-5527,563,-534,10754,-2333,-174,19,375,-153
1256,2,2022-09-15T20:48:20.115690,690120,-5523,558,-527,11078,-2288,-310,19,375,-153
1257,2,2022-09-15T20:48:20.123084,690129,-5523,558,-527,11078,-2288,-310,19,375,-153
1258,2,2022-09-15T20:48:20.132667,690139,-5519,553,-534,11354,-2236,-400,19,375,-153
1259,2,2022-09-15T20:48:20.140188,690145,-5519,553,-534,11354,-2236,-400,19,375,-153
1260,2,2022-09-15T20:48:20.147719,690154,-5513,536,-541,11621,-2180,-434,19,375,-153
1261,2,2022-09-15T20:48:20.156838,690162,-5513,536,-541,11621,-2180,-434,19,375,-153
1262,2,2022-09-15T20:48:20.162864,690169,-5513,536,-541,11621,-2180,-434,19,375,-153
1263,2,2022-09-15T20:48:20.170703,690178,-5513,527,-539,11888,-2118,-436,19,375,-153
1264,2,2022-09-15T20:48:20.176244,690183,-5513,527,-539,11888,-2118,-436,19,375,-153
1265,2,2022-09-15T20:48:20.181770,690188,-5513,527,-539,11888,-2118,-436,19,375,-153
1266,2,2022-09-15T20:48:20.191805,690197,-5511,515,-542,12136,-2048,-409,23,391,-161
1267,2,2022-09-15T20:48:20.199504,690205,-5511,515,-542,12136,-2048,-409,23,391,-161
1268,2,2022-09-15T20:48:20.205789,690212,-5511,515,-542,12136,-2048,-409,23,391,-161
1269,2,2022-09-15T20:48:20.216251,690222,-5523,496,-550,12432,-1964,-322,23,391,-161
1270,2,2022-09-15T20:48:20.222531,690229,-5523,496,-550,12432,-1964,-322,23,391,-161
1271,2,2022-09-15T20:48:20.234844,690242,-5528,485,-556,12750,-1954,-248,23,391,-161
1272,2,2022-09-15T20:48:20.241959,690247,-5528,485,-556,12750,-1954,-248,23,391,-161
1273,2,2022-09-15T20:48:20.248653,690255,-5524,487,-560,13082,-2012,-194,23,391,-161
1274,2,2022-09-15T20:48:20.259748,690266,-5524,487,-560,13082,-2012,-194,23,391,-161
1275,2,2022-09-15T20:48:20.265938,690272,-5524,487,-560,13082,-2012,-194,23,391,-161
1276,2,2022-09-15T20:48:20.277403,690283,-5523,495,-574,13375,-2039,-105,23,391,-161
1277,2,2022-09-15T20:48:20.284701,690291,-5523,495,-574,13375,-2039,-105,23,391,-161
1278,2,2022-09-15T20:48:20.293989,690298,-5525,511,-581,13578,-2020,-26,23,391,-161
1279,2,2022-09-15T20:48:20.302572,690308,-5525,511,-581,13578,-2020,-26,23,391,-161
1280,2,2022-09-15T20:48:20.310560,690318,-5527,523,-575,13641,-1986,-30,36,390,-164
1281,2,2022-09-15T20:48:20.319840,690323,-5527,523,-575,13641,-1986,-30,36,390,-164
1282,2,2022-09-15T20:48:20.326113,690332,-5527,523,-575,13641,-1986,-30,36,390,-164
1283,2,2022-09-15T20:48:20.335646,690342,-5533,523,-579,13596,-1997,-97,36,390,-164
1284,2,2022-09-15T20:48:20.342918,690348,-5533,523,-579,13596,-1997,-97,36,390,-164
1285,2,2022-09-15T20:48:20.354442,690361,-5533,523,-579,13596,-1997,-97,36,390,-164
1286,2,2022-09-15T20:48:20.360071,690366,-5533,523,-579,13596,-1997,-97,36,390,-164
1287,2,2022-09-15T20:48:20.367122,690373,-5552,507,-590,13494,-2034,-289,36,390,-164
1288,2,2022-09-15T20:48:20.377692,690384,-5552,507,-590,13494,-2034,-289,36,390,-164
1289,2,2022-09-15T20:48:20.383398,690390,-5552,507,-590,13494,-2034,-289,36,390,-164
1290,2,2022-09-15T20:48:20.394758,690401,-5543,505,-597,13494,-2089,-347,36,390,-164
1291,2,2022-09-15T20:48:20.400421,690407,-5543,505,-597,13494,-2089,-347,36,390,-164
1292,2,2022-09-15T20:48:20.406966,690413,-5543,499,-597,13569,-2122,-297,36,390,-164
1293,2,2022-09-15T20:48:20.416129,690422,-5543,499,-597,13569,-2122,-297,36,390,-164
1294,2,2022-09-15T20:48:20.423226,690429,-5543,499,-597,13569,-2122,-297,36,390,-164
1295,2,2022-09-15T20:48:20.429904,690437,-5546,495,-593,13661,-2110,-257,40,392,-170
1296,2,2022-09-15T20:48:20.439282,690445,-5546,495,-593,13661,-2110,-257,40,392,-170
1297,2,2022-09-15T20:48:20.445247,690452,-5546,495,-593,13661,-2110,-257,40,392,-170
1298,2,2022-09-15T20:48:20.452263,690459,-5542,493,-600,13731,-2170,-285,40,392,-170
1299,2,2022-09-15T20:48:20.457562,690464,-5542,493,-600,13731,-2170,-285,40,392,-170
1300,2,2022-09-15T20:48:20.463204,690469,-5542,493,-600,13731,-2170,-285,40,392,-170
1301,2,2022-09-15T20:48:20.471597,690479,-5539,489,-597,13799,-2240,-371,40,392,-170
1302,2,2022-09-15T20:48:20.480660,690487,-5539,489,-597,13799,-2240,-371,40,392,-170
1303,2,2022-09-15T20:48:20.487514,690494,-5529,499,-587,13820,-2296,-441,40,392,-170
1304,2,2022-09-15T20:48:20.494156,690501,-5529,499,-587,13820,-2296,-441,40,392,-170
1305,2,2022-09-15T20:48:20.499523,690506,-5529,499,-587,13820,-2296,-441,40,392,-170
1306,2,2022-09-15T20:48:20.505252,690511,-5529,499,-587,13820,-2296,-441,40,392,-170
1307,2,2022-09-15T20:48:20.515961,690522,-5514,499,-582,13808,-2330,-444,40,392,-170
1308,2,2022-09-15T20:48:20.525701,690532,-5514,499,-582,13808,-2330,-444,40,392,-170
1309,2,2022-09-15T20:48:20.535389,690542,-5520,508,-579,13749,-2328,-344,40,392,-170
1310,2,2022-09-15T20:48:20.543918,690547,-5520,508,-579,13749,-2328,-344,40,392,-170
1311,2,2022-09-15T20:48:20.556430,690562,-5522,510,-576,13665,-2328,-251,59,389,-167
1312,2,2022-09-15T20:48:20.561967,690569,-5522,510,-576,13665,-2328,-251,59,389,-167
1313,2,2022-09-15T20:48:20.572446,690579,-5520,520,-567,13520,-2280,-224,59,389,-167
1314,2,2022-09-15T20:48:20.581367,690588,-5520,520,-567,13520,-2280,-224,59,389,-167
1315,2,2022-09-15T20:48:20.587883,690594,-5514,522,-568,13341,-2183,-206,59,389,-167
1316,2,2022-09-15T20:48:20.597510,690601,-5514,522,-568,13341,-2183,-206,59,389,-167
1317,2,2022-09-15T20:48:20.603712,690610,-5514,522,-568,13341,-2183,-206,59,389,-167
1318,2,2022-09-15T20:48:20.613932,690620,-5514,522,-568,13341,-2183,-206,59,389,-167
1319,2,2022-09-15T20:48:20.620937,690627,-5514,522,-568,13341,-2183,-206,59,389,-167
1320,2,2022-09-15T20:48:20.627102,690633,-5521,524,-568,12877,-1890,-188,59,389,-167
1321,2,2022-09-15T20:48:20.643761,690648,-5521,524,-568,12877,-1890,-188,59,389,-167
1322,2,2022-09-15T20:48:20.653531,690660,-5519,527,-567,12653,-1791,-210,59,389,-167
1323,2,2022-09-15T20:48:20.662136,690666,-5519,527,-567,12653,-1791,-210,59,389,-167
1324,2,2022-09-15T20:48:20.671707,690677,-5515,535,-573,12408,-1664,-243,66,392,-172
1325,2,2022-09-15T20:48:20.679208,690685,-5515,535,-573,12408,-1664,-243,66,392,-172
1326,2,2022-09-15T20:48:20.687216,690694,-5524,536,-576,12144,-1454,-250,66,392,-172
1327,2,2022-09-15T20:48:20.698323,690705,-5524,536,-576,12144,-1454,-250,66,392,-172
1328,2,2022-09-15T20:48:20.704131,690711,-5524,536,-576,12144,-1454,-250,66,392,-172
1329,2,2022-09-15T20:48:20.712780,690719,-5527,531,-586,11876,-1318,-279,66,392,-172
1330,2,2022-09-15T20:48:20.724253,690729,-5527,531,-586,11876,-1318,-279,66,392,-172
1331,2,2022-09-15T20:48:20.733658,690740,-5537,531,-595,11618,-1226,-344,66,392,-172
1332,2,2022-09-15T20:48:20.741200,690747,-5537,531,-595,11618,-1226,-344,66,392,-172
1333,2,2022-09-15T20:48:20.746671,690753,-5534,532,-606,11348,-1139,-438,66,392,-172
1334,2,2022-09-15T20:48:20.755742,690762,-5534,532,-606,11348,-1139,-438,66,392,-172
1335,2,2022-09-15T20:48:20.761911,690768,-5534,532,-606,11348,-1139,-438,66,392,-172
1336,2,2022-09-15T20:48:20.770893,690778,-5543,528,-610,11059,-1036,-526,66,392,-172
1337,2,2022-09-15T20:48:20.776615,690783,-5543,528,-610,11059,-1036,-526,66,392,-172
1338,2,2022-09-15T20:48:20.786269,690793,-5543,528,-610,11059,-1036,-526,66,392,-172
1339,2,2022-09-15T20:48:20.797693,690804,-5542,520,-618,10796,-982,-629,66,392,-172
1340,2,2022-09-15T20:48:20.806530,690813,-5541,525,-621,10533,-934,-730,77,391,-177
1341,2,2022-09-15T20:48:20.816611,690822,-5541,525,-621,10533,-934,-730,77,391,-177
1342,2,2022-09-15T20:48:20.822192,690829,-5541,525,-621,10533,-934,-730,77,391,-177
1343,2,2022-09-15T20:48:20.833133,690839,-5529,527,-626,10248,-896,-766,77,391,-177
1344,2,2022-09-15T20:48:20.841904,690847,-5529,527,-626,10248,-896,-766,77,391,-177
1345,2,2022-09-15T20:48:20.851841,690854,-5519,532,-633,9921,-847,-725,77,391,-177
1346,2,2022-09-15T20:48:20.860985,690868,-5519,532,-633,9921,-847,-725,77,391,-177
1347,2,2022-09-15T20:48:20.868670,690875,-5501,542,-638,9553,-809,-620,77,391,-177
1348,2,2022-09-15T20:48:20.873768,690880,-5501,542,-638,9553,-809,-620,77,391,-177
1349,2,2022-09-15T20:48:20.879585,690886,-5501,542,-638,9553,-809,-620,77,391,-177
1350,2,2022-09-15T20:48:20.885257,690891,-5501,542,-638,9553,-809,-620,77,391,-177
1351,2,2022-09-15T20:48:20.892950,690899,-5491,556,-640,9162,-747,-430,77,391,-177
1352,2,2022-09-15T20:48:20.902154,690907,-5491,556,-640,9162,-747,-430,77,391,-177
1353,2,2022-09-15T20:48:20.908514,690915,-5491,556,-640,9162,-747,-430,77,391,-177
1354,2,2022-09-15T20:48:20.918533,690923,-5491,556,-640,9162,-747,-430,77,391,-177
1355,2,2022-09-15T20:48:20.926424,690932,-5491,556,-640,9162,-747,-430,77,391,-177
1356,2,2022-09-15T20:48:20.936389,690942,-5474,588,-642,8320,-611,88,87,391,-179
1357,2,2022-09-15T20:48:20.942120,690949,-5474,588,-642,8320,-611,88,87,391,-179
1358,2,2022-09-15T20:48:20.949373,690956,-5474,623,-647,7818,-476,358,87,391,-179
1359,2,2022-09-15T20:48:20.955271,690962,-5474,623,-647,7818,-476,358,87,391,-179
1360,2,2022-09-15T20:48:20.960797,690967,-5474,623,-647,7818,-476,358,87,391,-179
1361,2,2022-09-15T20:48:20.969531,690976,-5481,642,-656,7215,-311,612,87,391,-179
1362,2,2022-09-15T20:48:20.977935,690984,-5481,642,-656,7215,-311,612,87,391,-179
1363,2,2022-09-15T20:48:20.983512,690990,-5481,642,-656,7215,-311,612,87,391,-179
1364,2,2022-09-15T20:48:20.996166,691001,-5491,663,-670,6536,-175,799,87,391,-179
1365,2,2022-09-15T20:48:21.004532,691011,-5491,663,-670,6536,-175,799,87,391,-179
1366,2,2022-09-15T20:48:21.015996,691021,-5491,663,-670,6536,-175,799,87,391,-179
1367,2,2022-09-15T20:48:21.022739,691030,-5491,663,-670,6536,-175,799,87,391,-179
1368,2,2022-09-15T20:48:21.031652,691038,-5513,682,-688,5178,73,890,87,391,-179
1369,2,2022-09-15T20:48:21.041816,691048,-5513,682,-688,5178,73,890,87,391,-179
1370,2,2022-09-15T20:48:21.052984,691059,-5515,698,-686,4477,170,725,87,389,-173
1371,2,2022-09-15T20:48:21.059754,691065,-5515,698,-686,4477,170,725,87,389,-173
1372,2,2022-09-15T20:48:21.065426,691072,-5515,698,-686,4477,170,725,87,389,-173
1373,2,2022-09-15T20:48:21.075642,691082,-5515,706,-700,3743,299,519,87,389,-173
1374,2,2022-09-15T20:48:21.084982,691091,-5515,706,-700,3743,299,519,87,389,-173
1375,2,2022-09-15T20:48:21.097181,691103,-5528,718,-708,2952,461,298,87,389,-173
1376,2,2022-09-15T20:48:21.105477,691112,-5528,718,-708,2952,461,298,87,389,-173
1377,2,2022-09-15T20:48:21.115009,691121,-5536,717,-713,2087,641,75,87,389,-173
1378,2,2022-09-15T20:48:21.123345,691130,-5536,717,-713,2087,641,75,87,389,-173
1379,2,2022-09-15T20:48:21.132998,691139,-5535,721,-715,1173,797,-150,87,389,-173
1380,2,2022-09-15T20:48:21.139826,691145,-5535,721,-715,1173,797,-150,87,389,-173
1381,2,2022-09-15T20:48:21.147423,691153,-5522,722,-726,167,961,-393,87,389,-173
1382,2,2022-09-15T20:48:21.158423,691165,-5522,722,-726,167,961,-393,87,389,-173
1383,2,2022-09-15T20:48:21.164841,691171,-5522,722,-726,167,961,-393,87,389,-173
1384,2,2022-09-15T20:48:21.177988,691184,-5511,712,-734,-917,1193,-641,89,383,-191
1385,2,2022-09-15T20:48:21.187923,691194,-5503,701,-748,-1992,1406,-825,89,383,-191
1386,2,2022-09-15T20:48:21.203988,691209,-5503,701,-748,-1992,1406,-825,89,383,-191
1387,2,2022-09-15T20:48:21.212575,691219,-5488,684,-765,-3042,1593,-934,89,383,-191
1388,2,2022-09-15T20:48:21.220012,691226,-5488,684,-765,-3042,1593,-934,89,383,-191
1389,2,2022-09-15T20:48:21.225778,691232,-5488,684,-765,-3042,1593,-934,89,383,-191
1390,2,2022-09-15T20:48:21.234706,691240,-5482,671,-783,-4038,1766,-952,89,383,-191
1391,2,2022-09-15T20:48:21.241482,691247,-5482,671,-783,-4038,1766,-952,89,383,-191
1392,2,2022-09-15T20:48:21.248256,691255,-5497,649,-796,-4942,1879,-929,89,383,-191
1393,2,2022-09-15T20:48:21.256331,691263,-5497,649,-796,-4942,1879,-929,89,383,-191
1394,2,2022-09-15T20:48:21.262255,691268,-5497,649,-796,-4942,1879,-929,89,383,-191
1395,2,2022-09-15T20:48:21.275346,691281,-5503,639,-803,-5755,1891,-855,89,383,-191
1396,2,2022-09-15T20:48:21.282658,691289,-5503,639,-803,-5755,1891,-855,89,383,-191
1397,2,2022-09-15T20:48:21.292750,691298,-5517,623,-813,-6458,1838,-753,89,393,-187
1398,2,2022-09-15T20:48:21.300213,691306,-5517,623,-813,-6458,1838,-753,89,393,-187
1399,2,2022-09-15T20:48:21.306499,691313,-5517,623,-813,-6458,1838,-753,89,393,-187
1400,2,2022-09-15T20:48:21.317608,691323,-5525,610,-818,-7047,1685,-635,89,393,-187
1401,2,2022-09-15T20:48:21.325298,691332,-5525,610,-818,-7047,1685,-635,89,393,-187
1402,2,2022-09-15T20:48:21.334755,691341,-5521,605,-834,-7546,1483,-527,89,393,-187
1403,2,2022-09-15T20:48:21.342123,691347,-5521,605,-834,-7546,1483,-527,89,393,-187
1404,2,2022-09-15T20:48:21.348977,691355,-5524,594,-830,-7938,1326,-425,89,393,-187
1405,2,2022-09-15T20:48:21.361155,691366,-5524,594,-830,-7938,1326,-425,89,393,-187
1406,2,2022-09-15T20:48:21.370786,691377,-5529,588,-824,-8242,1189,-339,89,393,-187
1407,2,2022-09-15T20:48:21.379321,691386,-5529,588,-824,-8242,1189,-339,89,393,-187
1408,2,2022-09-15T20:48:21.385766,691392,-5529,588,-824,-8242,1189,-339,89,393,-187
1409,2,2022-09-15T20:48:21.395412,691401,-5515,594,-815,-8489,1040,-277,89,393,-187
1410,2,2022-09-15T20:48:21.401429,691407,-5515,594,-815,-8489,1040,-277,89,393,-187
1411,2,2022-09-15T20:48:21.411168,691418,-5495,602,-817,-8741,961,-180,89,393,-187
1412,2,2022-09-15T20:48:21.422648,691429,-5495,602,-817,-8741,961,-180,89,393,-187
1413,2,2022-09-15T20:48:21.432983,691439,-5488,625,-804,-9029,988,-43,83,393,-189
1414,2,2022-09-15T20:48:21.439432,691445,-5488,625,-804,-9029,988,-43,83,393,-189
1415,2,2022-09-15T20:48:21.447248,691453,-5495,637,-797,-9386,1076,126,83,393,-189
1416,2,2022-09-15T20:48:21.457904,691464,-5495,637,-797,-9386,1076,126,83,393,-189
1417,2,2022-09-15T20:48:21.464570,691470,-5495,637,-797,-9386,1076,126,83,393,-189
1418,2,2022-09-15T20:48:21.470913,691477,-5489,637,-798,-9782,1127,260,83,393,-189
1419,2,2022-09-15T20:48:21.477341,691483,-5489,637,-798,-9782,1127,260,83,393,-189
1420,2,2022-09-15T20:48:21.483594,691490,-5489,637,-798,-9782,1127,260,83,393,-189
1421,2,2022-09-15T20:48:21.490653,691496,-5486,647,-799,-10184,1158,310,83,393,-189
1422,2,2022-09-15T20:48:21.496731,691503,-5486,647,-799,-10184,1158,310,83,393,-189
1423,2,2022-09-15T20:48:21.502988,691510,-5486,647,-799,-10184,1158,310,83,393,-189
1424,2,2022-09-15T20:48:21.515123,691521,-5488,658,-802,-10581,1247,307,83,393,-189
1425,2,2022-09-15T20:48:21.525787,691531,-5488,658,-802,-10581,1247,307,83,393,-189
1426,2,2022-09-15T20:48:21.533504,691540,-5502,663,-802,-10968,1352,288,83,393,-189
1427,2,2022-09-15T20:48:21.540622,691546,-5502,663,-802,-10968,1352,288,83,393,-189
1428,2,2022-09-15T20:48:21.547629,691554,-5505,666,-794,-11344,1397,218,69,393,-189
1429,2,2022-09-15T20:48:21.555751,691562,-5505,666,-794,-11344,1397,218,69,385,-193
1430,2,2022-09-15T20:48:21.561367,691568,-5505,666,-794,-11344,1397,218,69,385,-193
1431,2,2022-09-15T20:48:21.570384,691575,-5512,665,-802,-11689,1422,91,69,385,-193
1432,2,2022-09-15T20:48:21.580382,691587,-5512,665,-802,-11689,1422,91,69,385,-193
1433,2,2022-09-15T20:48:21.586197,691593,-5512,665,-802,-11689,1422,91,69,385,-193
1434,2,2022-09-15T20:48:21.596708,691603,-5512,658,-803,-11985,1428,-51,69,385,-193
1435,2,2022-09-15T20:48:21.602840,691609,-5512,658,-803,-11985,1428,-51,69,385,-193
1436,2,2022-09-15T20:48:21.611341,691617,-5519,652,-795,-12217,1442,-186,69,385,-193
