,imu,server_time,arduino_time,ax,ay,az,gx,gy,gz,mx,my,mz
0,1,2022-09-30T20:10:05.291158,1369502,-1629,558,-866,-2022,-467,330,339,399,-91
1,1,2022-09-30T20:10:05.303397,1369535,-1630,577,-864,-1530,-247,114,339,399,-91
2,1,2022-09-30T20:10:05.315107,1369548,-1630,577,-864,-1530,-247,114,339,399,-91
3,1,2022-09-30T20:10:05.327875,1369562,-1625,588,-866,-1394,-166,13,339,399,-91
4,1,2022-09-30T20:10:05.339848,1369574,-1625,588,-866,-1394,-166,13,339,399,-91
5,1,2022-09-30T20:10:05.348168,1369582,-1625,588,-866,-1394,-166,13,339,399,-91
6,1,2022-09-30T20:10:05.358605,1369592,-1632,583,-865,-1195,-70,-230,336,412,-92
7,1,2022-09-30T20:10:05.365384,1369600,-1632,583,-865,-1195,-70,-230,336,412,-92
8,1,2022-09-30T20:10:05.372753,1369607,-1632,583,-865,-1195,-70,-230,336,412,-92
9,1,2022-09-30T20:10:05.380549,1369615,-1634,576,-878,-1115,-36,-314,336,412,-92
10,1,2022-09-30T20:10:05.387563,1369622,-1634,576,-878,-1115,-36,-314,336,412,-92
11,1,2022-09-30T20:10:05.397737,1369631,-1633,569,-878,-998,-25,-405,336,412,-92
12,1,2022-09-30T20:10:05.405588,1369639,-1633,569,-878,-998,-25,-405,336,412,-92
13,1,2022-09-30T20:10:05.414666,1369649,-1633,569,-878,-998,-25,-405,336,412,-92
14,1,2022-09-30T20:10:05.422922,1369657,-1636,566,-886,-866,-28,-514,336,412,-92
15,1,2022-09-30T20:10:05.433368,1369667,-1636,566,-886,-866,-28,-514,336,412,-92
16,1,2022-09-30T20:10:05.441160,1369675,-1637,568,-879,-754,-73,-649,336,412,-92
17,1,2022-09-30T20:10:05.449665,1369682,-1637,568,-879,-754,-73,-649,336,412,-92
18,1,2022-09-30T20:10:05.457345,1369692,-1627,582,-883,-630,-93,-771,336,412,-92
19,1,2022-09-30T20:10:05.464960,1369699,-1627,582,-883,-630,-93,-771,336,412,-92
20,1,2022-09-30T20:10:05.472634,1369707,-1627,582,-883,-630,-93,-771,336,412,-92
21,1,2022-09-30T20:10:05.480223,1369714,-1649,603,-883,-624,38,-786,346,398,-92
22,1,2022-09-30T20:10:05.487922,1369721,-1649,603,-883,-624,38,-786,346,398,-92
23,1,2022-09-30T20:10:05.500879,1369733,-1643,586,-884,-810,6,-533,346,398,-92
24,1,2022-09-30T20:10:05.508229,1369742,-1643,586,-884,-810,6,-533,346,398,-92
25,1,2022-09-30T20:10:05.518788,1369752,-1633,576,-888,-980,-5,-422,346,398,-92
26,1,2022-09-30T20:10:05.526490,1369760,-1633,576,-888,-980,-5,-422,346,398,-92
27,1,2022-09-30T20:10:05.534185,1369768,-1633,576,-888,-980,-5,-422,346,398,-92
28,1,2022-09-30T20:10:05.541820,1369776,-1636,567,-898,-1106,1,-383,346,398,-92
29,1,2022-09-30T20:10:05.548929,1369783,-1636,567,-898,-1106,1,-383,346,398,-92
30,1,2022-09-30T20:10:05.556992,1369791,-1636,567,-898,-1106,1,-383,346,398,-92
31,1,2022-09-30T20:10:05.564875,1369798,-1636,562,-900,-1200,1,-325,346,398,-92
32,1,2022-09-30T20:10:05.573151,1369806,-1636,562,-900,-1200,1,-325,346,398,-92
33,1,2022-09-30T20:10:05.580751,1369815,-1639,554,-908,-1265,-50,-211,346,398,-92
34,1,2022-09-30T20:10:05.588457,1369823,-1639,554,-908,-1265,-50,-211,346,398,-92
35,1,2022-09-30T20:10:05.599168,1369833,-1635,556,-910,-1304,-143,-126,340,402,-90
36,1,2022-09-30T20:10:05.607228,1369841,-1635,556,-910,-1304,-143,-126,340,402,-90
37,1,2022-09-30T20:10:05.617651,1369851,-1635,556,-910,-1304,-143,-126,340,402,-90
38,1,2022-09-30T20:10:05.624791,1369859,-1629,563,-909,-1331,-208,-129,340,402,-90
39,1,2022-09-30T20:10:05.632833,1369866,-1629,563,-909,-1331,-208,-129,340,402,-90
40,1,2022-09-30T20:10:05.641514,1369875,-1634,567,-914,-1353,-213,-139,340,402,-90
41,1,2022-09-30T20:10:05.655291,1369886,-1634,567,-914,-1353,-213,-139,340,402,-90
42,1,2022-09-30T20:10:05.681420,1369899,-1638,569,-916,-1397,-277,-134,340,402,-90
43,1,2022-09-30T20:10:05.689944,1369923,-1631,567,-911,-1461,-365,-167,340,402,-90
44,1,2022-09-30T20:10:05.702858,1369936,-1628,561,-912,-1507,-410,-248,340,402,-90
45,1,2022-09-30T20:10:05.713659,1369948,-1628,561,-912,-1507,-410,-248,340,402,-90
46,1,2022-09-30T20:10:05.721101,1369955,-1631,559,-914,-1522,-394,-379,354,410,-88
47,1,2022-09-30T20:10:05.730008,1369963,-1631,559,-914,-1522,-394,-379,354,410,-88
48,1,2022-09-30T20:10:05.746295,1369980,-1634,551,-901,-1548,-386,-445,354,410,-88
49,1,2022-09-30T20:10:05.759171,1369994,-1632,542,-897,-1573,-406,-435,354,410,-88
50,1,2022-09-30T20:10:05.771714,1370005,-1632,542,-897,-1573,-406,-435,354,410,-88
51,1,2022-09-30T20:10:05.785346,1370019,-1630,540,-901,-1573,-498,-462,354,410,-88
52,1,2022-09-30T20:10:05.800427,1370035,-1632,540,-897,-1589,-553,-496,354,410,-88
53,1,2022-09-30T20:10:05.811423,1370046,-1632,540,-897,-1589,-553,-496,354,410,-88
54,1,2022-09-30T20:10:05.821976,1370056,-1623,535,-894,-1607,-544,-481,354,410,-88
55,1,2022-09-30T20:10:05.832380,1370066,-1623,535,-894,-1607,-544,-481,354,410,-88
56,1,2022-09-30T20:10:05.842353,1370077,-1617,517,-889,-1613,-446,-428,354,410,-88
57,1,2022-09-30T20:10:05.854095,1370088,-1617,517,-889,-1613,-446,-428,354,410,-88
58,1,2022-09-30T20:10:05.927751,1370098,-1628,516,-884,-1586,-313,-444,340,394,-92
59,1,2022-09-30T20:10:05.940472,1370174,-1637,488,-906,-1647,-229,-588,340,394,-92
60,1,2022-09-30T20:10:05.948922,1370182,-1637,488,-906,-1647,-229,-588,340,394,-92
61,1,2022-09-30T20:10:05.960209,1370194,-1632,490,-904,-1510,-280,-558,340,394,-92
62,1,2022-09-30T20:10:05.967952,1370203,-1632,490,-904,-1510,-280,-558,340,394,-92
63,1,2022-09-30T20:10:05.978477,1370213,-1625,493,-890,-1370,-319,-502,356,406,-88
64,1,2022-09-30T20:10:05.985860,1370220,-1625,493,-890,-1370,-319,-502,356,406,-88
65,1,2022-09-30T20:10:05.996799,1370231,-1625,493,-890,-1370,-319,-502,356,406,-88
66,1,2022-09-30T20:10:06.005030,1370238,-1623,498,-894,-1251,-317,-442,356,406,-88
67,1,2022-09-30T20:10:06.012992,1370247,-1623,498,-894,-1251,-317,-442,356,406,-88
68,1,2022-09-30T20:10:06.023898,1370258,-1629,504,-898,-1159,-287,-466,356,406,-88
69,1,2022-09-30T20:10:06.031813,1370266,-1629,504,-898,-1159,-287,-466,356,406,-88
70,1,2022-09-30T20:10:06.042950,1370276,-1621,511,-902,-1124,-280,-504,356,406,-88
71,1,2022-09-30T20:10:06.058025,1370285,-1621,511,-902,-1124,-280,-504,356,406,-88
72,1,2022-09-30T20:10:06.066299,1370301,-1627,504,-900,-1118,-257,-519,356,406,-88
73,1,2022-09-30T20:10:06.077889,1370312,-1631,500,-900,-1105,-238,-521,356,406,-88
74,1,2022-09-30T20:10:06.085923,1370320,-1631,500,-900,-1105,-238,-521,356,406,-88
75,1,2022-09-30T20:10:06.099053,1370328,-1631,500,-900,-1105,-238,-521,356,406,-88
76,1,2022-09-30T20:10:06.106136,1370341,-1627,506,-895,-1093,-253,-533,359,397,-89
77,1,2022-09-30T20:10:06.113796,1370348,-1627,506,-895,-1093,-253,-533,359,397,-89
78,1,2022-09-30T20:10:06.121012,1370355,-1626,518,-893,-1153,-253,-551,359,397,-89
79,1,2022-09-30T20:10:06.128115,1370362,-1626,518,-893,-1153,-253,-551,359,397,-89
80,1,2022-09-30T20:10:06.137683,1370372,-1630,515,-896,-1313,-213,-528,359,397,-89
81,1,2022-09-30T20:10:06.145859,1370381,-1630,515,-896,-1313,-213,-528,359,397,-89
82,1,2022-09-30T20:10:06.153544,1370388,-1630,515,-896,-1313,-213,-528,359,397,-89
83,1,2022-09-30T20:10:06.161083,1370395,-1630,497,-903,-1486,-193,-418,359,397,-89
84,1,2022-09-30T20:10:06.169323,1370403,-1630,497,-903,-1486,-193,-418,359,397,-89
85,1,2022-09-30T20:10:06.176623,1370412,-1630,497,-903,-1486,-193,-418,359,397,-89
86,1,2022-09-30T20:10:06.184046,1370418,-1635,475,-902,-1590,-198,-278,359,397,-89
87,1,2022-09-30T20:10:06.191253,1370426,-1635,475,-902,-1590,-198,-278,359,397,-89
88,1,2022-09-30T20:10:06.201408,1370436,-1632,466,-905,-1602,-208,-173,359,397,-89
89,1,2022-09-30T20:10:06.211116,1370445,-1632,466,-905,-1602,-208,-173,359,397,-89
90,1,2022-09-30T20:10:06.220668,1370455,-1636,473,-902,-1579,-256,-91,357,401,-95
91,1,2022-09-30T20:10:06.230662,1370465,-1636,473,-902,-1579,-256,-91,357,401,-95
92,1,2022-09-30T20:10:06.237755,1370472,-1632,479,-901,-1599,-336,-48,357,401,-95
93,1,2022-09-30T20:10:06.275511,1370479,-1632,479,-901,-1599,-336,-48,357,401,-95
94,1,2022-09-30T20:10:06.283722,1370518,-1631,485,-907,-1641,-376,-76,357,401,-95
95,1,2022-09-30T20:10:06.295765,1370530,-1631,485,-907,-1641,-376,-76,357,401,-95
96,1,2022-09-30T20:10:06.305456,1370540,-1638,491,-903,-1689,-380,-54,357,401,-95
97,1,2022-09-30T20:10:06.316678,1370551,-1638,491,-903,-1689,-380,-54,357,401,-95
98,1,2022-09-30T20:10:06.324959,1370559,-1631,486,-904,-1728,-436,-10,357,401,-95
99,1,2022-09-30T20:10:06.332952,1370567,-1631,486,-904,-1728,-436,-10,357,401,-95
100,1,2022-09-30T20:10:06.341834,1370576,-1628,487,-901,-1731,-484,-17,357,401,-95
101,1,2022-09-30T20:10:06.349048,1370584,-1628,487,-901,-1731,-484,-17,357,401,-95
102,1,2022-09-30T20:10:06.359207,1370593,-1626,486,-895,-1703,-491,-63,358,402,-90
103,1,2022-09-30T20:10:06.368808,1370603,-1626,486,-895,-1703,-491,-63,358,402,-90
104,1,2022-09-30T20:10:06.378710,1370613,-1627,502,-890,-1694,-498,-90,358,402,-90
105,1,2022-09-30T20:10:06.386406,1370620,-1627,502,-890,-1694,-498,-90,358,402,-90
106,1,2022-09-30T20:10:06.396070,1370631,-1627,502,-890,-1694,-498,-90,358,402,-90
107,1,2022-09-30T20:10:06.403423,1370638,-1628,504,-892,-1709,-500,-88,358,402,-90
108,1,2022-09-30T20:10:06.411139,1370646,-1628,504,-892,-1709,-500,-88,358,402,-90
109,1,2022-09-30T20:10:06.420636,1370655,-1624,499,-891,-1728,-499,-75,358,402,-90
110,1,2022-09-30T20:10:06.430057,1370664,-1624,499,-891,-1728,-499,-75,358,402,-90
111,1,2022-09-30T20:10:06.440756,1370676,-1630,494,-894,-1733,-474,-119,358,402,-90
112,1,2022-09-30T20:10:06.450376,1370683,-1630,494,-894,-1733,-474,-119,358,402,-90
113,1,2022-09-30T20:10:06.459070,1370694,-1626,495,-893,-1726,-474,-175,358,402,-90
114,1,2022-09-30T20:10:06.465666,1370701,-1626,495,-893,-1726,-474,-175,358,402,-90
115,1,2022-09-30T20:10:06.475193,1370710,-1626,495,-893,-1726,-474,-175,358,402,-90
116,1,2022-09-30T20:10:06.482727,1370717,-1624,502,-884,-1733,-451,-223,358,396,-86
117,1,2022-09-30T20:10:06.489171,1370724,-1624,502,-884,-1733,-451,-223,358,396,-86
118,1,2022-09-30T20:10:06.498606,1370733,-1623,490,-887,-1748,-420,-226,358,396,-86
119,1,2022-09-30T20:10:06.506267,1370740,-1623,490,-887,-1748,-420,-226,358,396,-86
120,1,2022-09-30T20:10:06.515452,1370750,-1623,490,-887,-1748,-420,-226,358,396,-86
121,1,2022-09-30T20:10:06.522313,1370758,-1623,482,-892,-1734,-381,-226,358,396,-86
122,1,2022-09-30T20:10:06.529169,1370764,-1623,482,-892,-1734,-381,-226,358,396,-86
123,1,2022-09-30T20:10:06.539305,1370774,-1621,483,-892,-1695,-330,-288,358,396,-86
124,1,2022-09-30T20:10:06.558516,1370791,-1621,483,-892,-1695,-330,-288,358,396,-86
125,1,2022-09-30T20:10:06.573805,1370807,-1626,484,-886,-1643,-285,-350,358,396,-86
126,1,2022-09-30T20:10:06.588626,1370823,-1639,490,-892,-1625,-272,-367,358,396,-86
127,1,2022-09-30T20:10:06.604429,1370839,-1632,481,-885,-1642,-278,-320,362,398,-98
128,1,2022-09-30T20:10:06.616534,1370851,-1632,481,-885,-1642,-278,-320,362,398,-98
129,1,2022-09-30T20:10:06.626519,1370861,-1619,462,-886,-1625,-216,-261,362,398,-98
130,1,2022-09-30T20:10:06.642237,1370876,-1618,460,-892,-1554,-60,-260,362,398,-98
131,1,2022-09-30T20:10:06.651726,1370887,-1618,460,-892,-1554,-60,-260,362,398,-98
132,1,2022-09-30T20:10:06.675318,1370901,-1622,459,-904,-1480,48,-217,362,398,-98
133,1,2022-09-30T20:10:06.687561,1370921,-1616,457,-911,-1424,54,-118,362,398,-98
134,1,2022-09-30T20:10:06.708046,1370941,-1620,455,-914,-1358,2,44,362,398,-98
135,1,2022-09-30T20:10:06.727923,1370959,-1623,461,-914,-1351,-85,69,362,398,-92
136,1,2022-09-30T20:10:06.748317,1370978,-1630,494,-933,-1309,-2,-124,362,398,-92
137,1,2022-09-30T20:10:06.761121,1370994,-1666,520,-915,-1399,-50,-56,362,398,-92
138,1,2022-09-30T20:10:06.771724,1371006,-1666,520,-915,-1399,-50,-56,362,398,-92
139,1,2022-09-30T20:10:06.786052,1371017,-1615,514,-917,-1578,-404,270,362,398,-92
140,1,2022-09-30T20:10:06.799671,1371031,-1615,514,-917,-1578,-404,270,362,398,-92
141,1,2022-09-30T20:10:06.810341,1371043,-1619,508,-914,-1729,-498,243,362,398,-92
142,1,2022-09-30T20:10:06.825946,1371059,-1614,509,-911,-1776,-515,41,362,398,-92
143,1,2022-09-30T20:10:06.837879,1371072,-1610,481,-919,-1728,-489,-131,362,398,-92
144,1,2022-09-30T20:10:06.852756,1371087,-1610,481,-919,-1728,-489,-131,362,398,-92
145,1,2022-09-30T20:10:06.866642,1371101,-1630,485,-917,-1620,-350,-362,359,395,-83
146,1,2022-09-30T20:10:06.879539,1371114,-1630,484,-925,-1596,-272,-412,359,395,-83
147,1,2022-09-30T20:10:06.888414,1371123,-1630,484,-925,-1596,-272,-412,359,395,-83
148,1,2022-09-30T20:10:06.899594,1371131,-1630,484,-925,-1596,-272,-412,359,395,-83
149,1,2022-09-30T20:10:06.907409,1371143,-1629,477,-909,-1649,-395,-342,359,395,-83
150,1,2022-09-30T20:10:06.921658,1371156,-1628,476,-907,-1640,-462,-406,359,395,-83
151,1,2022-09-30T20:10:06.934121,1371169,-1628,476,-907,-1640,-462,-406,359,395,-83
152,1,2022-09-30T20:10:06.949084,1371182,-1616,477,-907,-1562,-428,-420,359,395,-83
153,1,2022-09-30T20:10:06.965010,1371200,-1612,474,-898,-1489,-332,-351,359,395,-83
154,1,2022-09-30T20:10:06.976459,1371211,-1612,474,-898,-1489,-332,-351,359,395,-83
155,1,2022-09-30T20:10:06.983647,1371218,-1612,474,-898,-1489,-332,-351,359,399,-97
156,1,2022-09-30T20:10:06.991532,1371226,-1612,474,-898,-1489,-332,-351,359,399,-97
157,1,2022-09-30T20:10:07.003107,1371238,-1630,481,-902,-1512,-272,-191,359,399,-97
158,1,2022-09-30T20:10:07.013009,1371247,-1630,481,-902,-1512,-272,-191,359,399,-97
159,1,2022-09-30T20:10:07.027117,1371260,-1624,461,-903,-1498,-245,-162,359,399,-97
160,1,2022-09-30T20:10:07.040411,1371276,-1615,458,-903,-1446,-199,-164,359,399,-97
161,1,2022-09-30T20:10:07.053516,1371288,-1615,458,-903,-1446,-199,-164,359,399,-97
162,1,2022-09-30T20:10:07.067193,1371298,-1649,445,-916,-1330,-42,-138,359,399,-97
163,1,2022-09-30T20:10:07.081784,1371317,-1609,453,-916,-1315,-205,18,359,399,-97
164,1,2022-09-30T20:10:07.092494,1371327,-1609,453,-916,-1315,-205,18,359,399,-97
165,1,2022-09-30T20:10:07.102035,1371337,-1614,464,-914,-1281,-136,-24,359,405,-89
166,1,2022-09-30T20:10:07.111172,1371346,-1614,464,-914,-1281,-136,-24,359,405,-89
167,1,2022-09-30T20:10:07.121184,1371355,-1629,470,-915,-1333,-112,-66,359,405,-89
168,1,2022-09-30T20:10:07.130682,1371366,-1629,470,-915,-1333,-112,-66,359,405,-89
169,1,2022-09-30T20:10:07.140092,1371374,-1617,466,-917,-1408,-181,-118,359,405,-89
170,1,2022-09-30T20:10:07.152306,1371386,-1617,466,-917,-1408,-181,-118,359,405,-89
171,1,2022-09-30T20:10:07.161340,1371396,-1623,468,-934,-1430,-213,-237,359,405,-89
172,1,2022-09-30T20:10:07.170800,1371406,-1623,468,-934,-1430,-213,-237,359,405,-89
173,1,2022-09-30T20:10:07.181293,1371416,-1620,472,-930,-1435,-248,-257,359,405,-89
174,1,2022-09-30T20:10:07.191097,1371425,-1620,472,-930,-1435,-248,-257,359,405,-89
175,1,2022-09-30T20:10:07.200472,1371436,-1636,470,-932,-1469,-269,-168,359,405,-89
176,1,2022-09-30T20:10:07.217205,1371445,-1636,470,-932,-1469,-269,-168,359,405,-89
177,1,2022-09-30T20:10:07.228759,1371463,-1636,470,-932,-1469,-269,-168,352,400,-94
178,1,2022-09-30T20:10:07.236673,1371472,-1636,470,-932,-1469,-269,-168,352,400,-94
179,1,2022-09-30T20:10:07.243047,1371479,-1626,466,-924,-1580,-613,82,352,400,-94
180,1,2022-09-30T20:10:07.252336,1371487,-1626,466,-924,-1580,-613,82,352,400,-94
181,1,2022-09-30T20:10:07.264016,1371499,-1620,468,-915,-1623,-666,47,352,400,-94
182,1,2022-09-30T20:10:07.272584,1371507,-1620,468,-915,-1623,-666,47,352,400,-94
183,1,2022-09-30T20:10:07.283135,1371518,-1613,473,-912,-1628,-646,-15,352,400,-94
184,1,2022-09-30T20:10:07.302350,1371527,-1613,473,-912,-1628,-646,-15,352,400,-94
185,1,2022-09-30T20:10:07.311498,1371546,-1627,471,-915,-1616,-626,-37,352,400,-94
186,1,2022-09-30T20:10:07.324828,1371560,-1626,470,-906,-1608,-651,4,352,400,-94
187,1,2022-09-30T20:10:07.336315,1371571,-1626,470,-906,-1608,-651,4,352,400,-94
188,1,2022-09-30T20:10:07.345650,1371581,-1616,472,-897,-1598,-636,-16,352,400,-94
189,1,2022-09-30T20:10:07.354346,1371589,-1616,472,-897,-1598,-636,-16,352,400,-94
190,1,2022-09-30T20:10:07.363170,1371598,-1620,479,-894,-1568,-590,-105,360,404,-94
191,1,2022-09-30T20:10:07.372341,1371608,-1620,479,-894,-1568,-590,-105,360,404,-94
192,1,2022-09-30T20:10:07.380922,1371616,-1612,475,-894,-1526,-530,-157,360,404,-94
193,1,2022-09-30T20:10:07.392056,1371627,-1612,475,-894,-1526,-530,-157,360,404,-94
194,1,2022-09-30T20:10:07.401115,1371636,-1618,478,-900,-1492,-431,-104,360,404,-94
195,1,2022-09-30T20:10:07.408102,1371643,-1618,478,-900,-1492,-431,-104,360,404,-94
196,1,2022-09-30T20:10:07.416352,1371652,-1618,478,-900,-1492,-431,-104,360,404,-94
197,1,2022-09-30T20:10:07.423045,1371658,-1623,470,-897,-1446,-354,-39,360,404,-94
198,1,2022-09-30T20:10:07.432049,1371667,-1623,470,-897,-1446,-354,-39,360,404,-94
199,1,2022-09-30T20:10:07.440535,1371675,-1622,468,-899,-1363,-343,-24,360,404,-94
200,1,2022-09-30T20:10:07.449650,1371684,-1622,468,-899,-1363,-343,-24,360,404,-94
201,1,2022-09-30T20:10:07.458100,1371694,-1635,474,-909,-1282,-304,8,360,404,-94
202,1,2022-09-30T20:10:07.467024,1371702,-1635,474,-909,-1282,-304,8,360,404,-94
203,1,2022-09-30T20:10:07.475087,1371710,-1635,474,-909,-1282,-304,8,360,404,-94
204,1,2022-09-30T20:10:07.482138,1371717,-1645,459,-902,-1249,-358,273,360,400,-92
205,1,2022-09-30T20:10:07.491503,1371725,-1645,459,-902,-1249,-358,273,360,400,-92
206,1,2022-09-30T20:10:07.503460,1371738,-1632,452,-900,-1229,-559,529,360,400,-92
207,1,2022-09-30T20:10:07.509679,1371745,-1632,452,-900,-1229,-559,529,360,400,-92
208,1,2022-09-30T20:10:07.517794,1371753,-1604,454,-899,-1194,-690,524,360,400,-92
209,1,2022-09-30T20:10:07.528122,1371763,-1604,454,-899,-1194,-690,524,360,400,-92
210,1,2022-09-30T20:10:07.539061,1371774,-1610,471,-895,-1128,-575,285,360,400,-92
211,1,2022-09-30T20:10:07.553140,1371788,-1610,471,-895,-1128,-575,285,360,400,-92
212,1,2022-09-30T20:10:07.564204,1371797,-1613,485,-902,-1117,-412,48,360,400,-92
213,1,2022-09-30T20:10:07.572500,1371806,-1613,485,-902,-1117,-412,48,360,400,-92
214,1,2022-09-30T20:10:07.581762,1371816,-1619,488,-891,-1160,-258,-131,360,400,-92
215,1,2022-09-30T20:10:07.591845,1371827,-1619,488,-891,-1160,-258,-131,360,400,-92
216,1,2022-09-30T20:10:07.600158,1371835,-1628,490,-894,-1259,-209,-217,359,405,-89
217,1,2022-09-30T20:10:07.609303,1371844,-1628,490,-894,-1259,-209,-217,359,405,-89
218,1,2022-09-30T20:10:07.621521,1371856,-1620,483,-893,-1348,-216,-241,359,405,-89
219,1,2022-09-30T20:10:07.628267,1371864,-1620,483,-893,-1348,-216,-241,359,405,-89
220,1,2022-09-30T20:10:07.640688,1371870,-1620,483,-893,-1348,-216,-241,359,405,-89
221,1,2022-09-30T20:10:07.657021,1371882,-1627,476,-901,-1377,-200,-250,359,405,-89
222,1,2022-09-30T20:10:07.672030,1371907,-1623,473,-903,-1347,-205,-293,359,405,-89
223,1,2022-09-30T20:10:07.689012,1371922,-1629,473,-901,-1270,-200,-340,359,405,-89
224,1,2022-09-30T20:10:07.700888,1371935,-1635,480,-906,-1242,-243,-385,359,405,-89
225,1,2022-09-30T20:10:07.708166,1371942,-1635,480,-906,-1242,-243,-385,359,405,-89
226,1,2022-09-30T20:10:07.714790,1371950,-1635,480,-906,-1242,-243,-385,359,405,-89
227,1,2022-09-30T20:10:07.721056,1371957,-1623,483,-897,-1245,-276,-400,353,397,-93
228,1,2022-09-30T20:10:07.742278,1371975,-1637,483,-903,-1270,-273,-391,353,397,-93
229,1,2022-09-30T20:10:07.757688,1371993,-1637,483,-903,-1270,-273,-391,353,397,-93
230,1,2022-09-30T20:10:07.768378,1372004,-1636,475,-903,-1341,-359,-273,353,397,-93
231,1,2022-09-30T20:10:07.780538,1372015,-1630,467,-904,-1414,-436,-164,353,397,-93
232,1,2022-09-30T20:10:07.790260,1372022,-1630,467,-904,-1414,-436,-164,353,397,-93
233,1,2022-09-30T20:10:07.799144,1372034,-1628,464,-904,-1469,-458,-120,353,397,-93
234,1,2022-09-30T20:10:07.811584,1372044,-1628,464,-904,-1469,-458,-120,353,397,-93
235,1,2022-09-30T20:10:07.825720,1372056,-1622,463,-899,-1480,-468,-113,353,397,-93
236,1,2022-09-30T20:10:07.835456,1372070,-1622,463,-899,-1480,-468,-113,353,397,-93
237,1,2022-09-30T20:10:07.842774,1372078,-1622,463,-893,-1476,-444,-112,353,397,-93
238,1,2022-09-30T20:10:07.852705,1372087,-1622,463,-893,-1476,-444,-112,353,397,-93
239,1,2022-09-30T20:10:07.865868,1372100,-1622,468,-894,-1477,-418,-91,356,400,-78
240,1,2022-09-30T20:10:07.877992,1372113,-1621,468,-895,-1471,-402,-86,356,400,-78
241,1,2022-09-30T20:10:07.884569,1372120,-1621,468,-895,-1471,-402,-86,356,400,-78
242,1,2022-09-30T20:10:07.891325,1372127,-1621,468,-895,-1471,-402,-86,356,400,-78
243,1,2022-09-30T20:10:07.901178,1372136,-1621,470,-894,-1462,-359,-107,356,400,-78
244,1,2022-09-30T20:10:07.910093,1372145,-1621,470,-894,-1462,-359,-107,356,400,-78
245,1,2022-09-30T20:10:07.915909,1372151,-1621,470,-894,-1462,-359,-107,356,400,-78
246,1,2022-09-30T20:10:07.923180,1372157,-1621,470,-893,-1446,-322,-136,356,400,-78
247,1,2022-09-30T20:10:07.929357,1372165,-1621,470,-893,-1446,-322,-136,356,400,-78
248,1,2022-09-30T20:10:07.945776,1372171,-1621,470,-893,-1446,-322,-136,356,400,-78
249,1,2022-09-30T20:10:07.954965,1372190,-1621,468,-895,-1425,-291,-172,356,400,-78
250,1,2022-09-30T20:10:07.962343,1372196,-1622,467,-892,-1414,-274,-180,356,400,-78
251,1,2022-09-30T20:10:07.973086,1372207,-1622,467,-892,-1414,-274,-180,356,400,-78
252,1,2022-09-30T20:10:07.985019,1372220,-1619,465,-897,-1414,-254,-193,354,402,-88
253,1,2022-09-30T20:10:07.992133,1372227,-1619,465,-897,-1414,-254,-193,354,402,-88
254,1,2022-09-30T20:10:07.998628,1372233,-1621,465,-902,-1414,-242,-198,354,402,-88
255,1,2022-09-30T20:10:08.007861,1372242,-1621,465,-902,-1414,-242,-198,354,402,-88
256,1,2022-09-30T20:10:08.016152,1372252,-1621,465,-902,-1414,-242,-198,354,402,-88
257,1,2022-09-30T20:10:08.024474,1372258,-1624,454,-898,-1405,-225,-204,354,402,-88
258,1,2022-09-30T20:10:08.034763,1372270,-1624,454,-898,-1405,-225,-204,354,402,-88
259,1,2022-09-30T20:10:08.042992,1372278,-1618,449,-899,-1360,-232,-225,354,402,-88
260,1,2022-09-30T20:10:08.053120,1372289,-1618,449,-899,-1360,-232,-225,354,402,-88
261,1,2022-09-30T20:10:08.059593,1372295,-1618,454,-902,-1320,-229,-241,354,402,-88
262,1,2022-09-30T20:10:08.069428,1372304,-1618,454,-902,-1320,-229,-241,354,402,-88
263,1,2022-09-30T20:10:08.082480,1372317,-1632,452,-906,-1305,-190,-253,354,402,-88
264,1,2022-09-30T20:10:08.093105,1372328,-1632,452,-906,-1305,-190,-253,354,402,-88
265,1,2022-09-30T20:10:08.107604,1372342,-1620,449,-898,-1325,-228,-232,366,400,-90
266,1,2022-09-30T20:10:08.117989,1372353,-1622,448,-903,-1342,-221,-216,366,400,-90
267,1,2022-09-30T20:10:08.129967,1372365,-1622,448,-903,-1342,-221,-216,366,400,-90
268,1,2022-09-30T20:10:08.136586,1372371,-1622,448,-903,-1342,-221,-216,366,400,-90
269,1,2022-09-30T20:10:08.144932,1372379,-1622,444,-899,-1359,-246,-184,366,400,-90
270,1,2022-09-30T20:10:08.158197,1372393,-1631,451,-901,-1357,-297,-181,366,400,-90
271,1,2022-09-30T20:10:08.172881,1372406,-1631,451,-901,-1357,-297,-181,366,400,-90
272,1,2022-09-30T20:10:08.183877,1372419,-1619,453,-905,-1390,-368,-118,366,400,-90
273,1,2022-09-30T20:10:08.193004,1372428,-1619,453,-905,-1390,-368,-118,366,400,-90
274,1,2022-09-30T20:10:08.201203,1372437,-1619,450,-911,-1415,-339,-47,366,400,-90
275,1,2022-09-30T20:10:08.212030,1372447,-1619,450,-911,-1415,-339,-47,366,400,-90
276,1,2022-09-30T20:10:08.224102,1372459,-1622,446,-907,-1396,-269,-23,357,397,-93
277,1,2022-09-30T20:10:08.235234,1372469,-1622,446,-907,-1396,-269,-23,357,397,-93
278,1,2022-09-30T20:10:08.247309,1372481,-1624,448,-909,-1390,-267,-55,357,397,-93
279,1,2022-09-30T20:10:08.256342,1372491,-1624,448,-909,-1390,-267,-55,357,397,-93
280,1,2022-09-30T20:10:08.264779,1372499,-1620,445,-911,-1364,-287,-100,357,397,-93
281,1,2022-09-30T20:10:08.272169,1372507,-1620,445,-911,-1364,-287,-100,357,397,-93
282,1,2022-09-30T20:10:08.282634,1372518,-1620,445,-916,-1345,-295,-137,357,397,-93
283,1,2022-09-30T20:10:08.291640,1372526,-1620,445,-916,-1345,-295,-137,357,397,-93
284,1,2022-09-30T20:10:08.298035,1372533,-1622,452,-911,-1358,-311,-137,357,397,-93
285,1,2022-09-30T20:10:08.304411,1372539,-1622,452,-911,-1358,-311,-137,357,397,-93
286,1,2022-09-30T20:10:08.312260,1372546,-1622,452,-911,-1358,-311,-137,357,397,-93
287,1,2022-09-30T20:10:08.321093,1372556,-1627,453,-911,-1415,-363,-104,357,397,-93
288,1,2022-09-30T20:10:08.331289,1372566,-1627,453,-911,-1415,-363,-104,357,397,-93
289,1,2022-09-30T20:10:08.338438,1372574,-1633,459,-909,-1473,-429,-93,358,390,-78
290,1,2022-09-30T20:10:08.346376,1372580,-1633,459,-909,-1473,-429,-93,358,390,-78
291,1,2022-09-30T20:10:08.353375,1372589,-1633,459,-909,-1473,-429,-93,358,390,-78
292,1,2022-09-30T20:10:08.363386,1372599,-1624,456,-901,-1533,-477,-92,358,390,-78
293,1,2022-09-30T20:10:08.374320,1372607,-1624,456,-901,-1533,-477,-92,358,390,-78
294,1,2022-09-30T20:10:08.385833,1372620,-1628,456,-902,-1594,-484,-87,358,390,-78
295,1,2022-09-30T20:10:08.401081,1372632,-1628,456,-902,-1594,-484,-87,358,390,-78
296,1,2022-09-30T20:10:08.409913,1372645,-1617,455,-893,-1657,-528,-51,358,390,-78
297,1,2022-09-30T20:10:08.422796,1372657,-1618,449,-891,-1681,-493,-23,358,390,-78
298,1,2022-09-30T20:10:08.433761,1372668,-1618,449,-891,-1681,-493,-23,358,390,-78
299,1,2022-09-30T20:10:08.446058,1372680,-1622,444,-896,-1650,-445,-44,358,390,-78
300,1,2022-09-30T20:10:08.458096,1372693,-1626,446,-895,-1579,-397,-67,358,390,-78
301,1,2022-09-30T20:10:08.469752,1372704,-1626,446,-895,-1579,-397,-67,358,390,-78
302,1,2022-09-30T20:10:08.483523,1372718,-1618,448,-891,-1515,-360,-90,357,403,-99
303,1,2022-09-30T20:10:08.492244,1372726,-1618,448,-891,-1515,-360,-90,357,403,-99
304,1,2022-09-30T20:10:08.506488,1372741,-1618,453,-895,-1460,-314,-98,357,403,-99
305,1,2022-09-30T20:10:08.519583,1372754,-1625,450,-900,-1418,-281,-100,357,403,-99
306,1,2022-09-30T20:10:08.535750,1372769,-1625,450,-900,-1418,-281,-100,357,403,-99
307,1,2022-09-30T20:10:08.544116,1372779,-1623,449,-898,-1396,-258,-97,357,403,-99
308,1,2022-09-30T20:10:08.553849,1372789,-1623,449,-898,-1396,-258,-97,357,403,-99
309,1,2022-09-30T20:10:08.564764,1372800,-1620,456,-906,-1387,-256,-90,357,403,-99
310,1,2022-09-30T20:10:08.574074,1372809,-1620,456,-906,-1387,-256,-90,357,403,-99
311,1,2022-09-30T20:10:08.586678,1372822,-1622,460,-902,-1398,-259,-90,357,403,-99
312,1,2022-09-30T20:10:08.598523,1372833,-1622,460,-902,-1398,-259,-90,357,403,-99
313,1,2022-09-30T20:10:08.608774,1372844,-1627,463,-893,-1443,-258,-83,358,398,-92
314,1,2022-09-30T20:10:08.620728,1372855,-1625,463,-902,-1495,-299,-74,358,398,-92
315,1,2022-09-30T20:10:08.630728,1372866,-1625,463,-902,-1495,-299,-74,358,398,-92
316,1,2022-09-30T20:10:08.639109,1372874,-1622,455,-903,-1535,-330,-92,358,398,-92
317,1,2022-09-30T20:10:08.647687,1372882,-1622,455,-903,-1535,-330,-92,358,398,-92
318,1,2022-09-30T20:10:08.655988,1372892,-1622,455,-903,-1535,-330,-92,358,398,-92
319,1,2022-09-30T20:10:08.663350,1372898,-1619,455,-905,-1558,-349,-165,358,398,-92
320,1,2022-09-30T20:10:08.675584,1372908,-1619,455,-905,-1558,-349,-165,358,398,-92
321,1,2022-09-30T20:10:08.686113,1372921,-1623,456,-903,-1559,-345,-237,358,398,-92
322,1,2022-09-30T20:10:08.698088,1372933,-1623,456,-903,-1559,-345,-237,358,398,-92
323,1,2022-09-30T20:10:08.707089,1372942,-1623,449,-908,-1568,-339,-266,358,398,-92
324,1,2022-09-30T20:10:08.717886,1372953,-1623,449,-908,-1568,-339,-266,358,398,-92
325,1,2022-09-30T20:10:08.727418,1372962,-1620,444,-900,-1565,-330,-252,356,402,-84
326,1,2022-09-30T20:10:08.738822,1372973,-1620,444,-900,-1565,-330,-252,356,402,-84
327,1,2022-09-30T20:10:08.750443,1372985,-1620,437,-901,-1539,-327,-220,356,402,-84
328,1,2022-09-30T20:10:08.761117,1372996,-1619,437,-901,-1494,-331,-188,356,402,-84
329,1,2022-09-30T20:10:08.771168,1373005,-1619,437,-901,-1494,-331,-188,356,402,-84
330,1,2022-09-30T20:10:08.782218,1373018,-1621,443,-902,-1464,-337,-167,356,402,-84
331,1,2022-09-30T20:10:08.788373,1373024,-1621,443,-902,-1464,-337,-167,356,402,-84
332,1,2022-09-30T20:10:08.794646,1373029,-1621,443,-902,-1464,-337,-167,356,402,-84
333,1,2022-09-30T20:10:08.802160,1373037,-1619,440,-900,-1463,-334,-156,356,402,-84
334,1,2022-09-30T20:10:08.810664,1373046,-1619,440,-900,-1463,-334,-156,356,402,-84
335,1,2022-09-30T20:10:08.818979,1373053,-1618,437,-900,-1465,-307,-142,356,402,-84
336,1,2022-09-30T20:10:08.829215,1373064,-1618,437,-900,-1465,-307,-142,356,402,-84
337,1,2022-09-30T20:10:08.841012,1373076,-1621,438,-904,-1448,-274,-138,361,395,-89
338,1,2022-09-30T20:10:08.849824,1373084,-1621,438,-904,-1448,-274,-138,361,395,-89
339,1,2022-09-30T20:10:08.858174,1373093,-1619,442,-904,-1427,-258,-141,361,395,-89
340,1,2022-09-30T20:10:08.867720,1373103,-1619,442,-904,-1427,-258,-141,361,395,-89
341,1,2022-09-30T20:10:08.874571,1373110,-1619,442,-904,-1427,-258,-141,361,395,-89
342,1,2022-09-30T20:10:08.884191,1373119,-1622,441,-906,-1414,-262,-120,361,395,-89
343,1,2022-09-30T20:10:08.891852,1373127,-1622,441,-906,-1414,-262,-120,361,395,-89
344,1,2022-09-30T20:10:08.902436,1373137,-1622,441,-906,-1414,-262,-120,361,395,-89
345,1,2022-09-30T20:10:08.909375,1373145,-1622,441,-906,-1414,-262,-120,361,395,-89
346,1,2022-09-30T20:10:08.921213,1373155,-1616,441,-905,-1452,-314,-95,361,395,-89
347,1,2022-09-30T20:10:08.932493,1373168,-1616,441,-905,-1452,-314,-95,361,395,-89
348,1,2022-09-30T20:10:08.938738,1373174,-1616,443,-903,-1461,-303,-102,361,395,-89
349,1,2022-09-30T20:10:08.949229,1373184,-1616,443,-903,-1461,-303,-102,361,395,-89
350,1,2022-09-30T20:10:08.960054,1373195,-1626,451,-908,-1480,-316,-87,361,395,-89
351,1,2022-09-30T20:10:08.968931,1373204,-1626,451,-908,-1480,-316,-87,361,395,-89
352,1,2022-09-30T20:10:08.981927,1373217,-1626,452,-898,-1523,-367,-58,359,389,-91
353,1,2022-09-30T20:10:08.990290,1373225,-1626,452,-898,-1523,-367,-58,359,389,-91
354,1,2022-09-30T20:10:09.001181,1373237,-1618,442,-902,-1552,-402,-10,359,389,-91
355,1,2022-09-30T20:10:09.009455,1373245,-1618,442,-902,-1552,-402,-10,359,389,-91
356,1,2022-09-30T20:10:09.017950,1373253,-1618,442,-902,-1552,-402,-10,359,389,-91
357,1,2022-09-30T20:10:09.025122,1373260,-1615,438,-905,-1533,-351,-50,359,389,-91
358,1,2022-09-30T20:10:09.031328,1373266,-1615,438,-905,-1533,-351,-50,359,389,-91
359,1,2022-09-30T20:10:09.041219,1373277,-1612,432,-905,-1445,-259,-166,359,389,-91
360,1,2022-09-30T20:10:09.050984,1373284,-1612,432,-905,-1445,-259,-166,359,389,-91
361,1,2022-09-30T20:10:09.058689,1373294,-1616,431,-909,-1378,-205,-262,359,389,-91
362,1,2022-09-30T20:10:09.066235,1373302,-1616,431,-909,-1378,-205,-262,359,389,-91
363,1,2022-09-30T20:10:09.073544,1373307,-1616,431,-909,-1378,-205,-262,359,389,-91
364,1,2022-09-30T20:10:09.083311,1373318,-1618,431,-903,-1354,-202,-286,359,389,-91
365,1,2022-09-30T20:10:09.092398,1373328,-1618,431,-903,-1354,-202,-286,359,389,-91
366,1,2022-09-30T20:10:09.109817,1373345,-1621,428,-903,-1343,-226,-248,358,400,-84
367,1,2022-09-30T20:10:09.116068,1373351,-1621,428,-903,-1343,-226,-248,358,400,-84
368,1,2022-09-30T20:10:09.122879,1373358,-1621,429,-906,-1348,-240,-190,358,400,-84
369,1,2022-09-30T20:10:09.129655,1373365,-1621,429,-906,-1348,-240,-190,358,400,-84
370,1,2022-09-30T20:10:09.140530,1373376,-1625,428,-908,-1361,-253,-139,358,400,-84
371,1,2022-09-30T20:10:09.149499,1373384,-1625,428,-908,-1361,-253,-139,358,400,-84
372,1,2022-09-30T20:10:09.160700,1373396,-1622,427,-910,-1398,-286,-66,358,400,-84
373,1,2022-09-30T20:10:09.171780,1373405,-1622,427,-910,-1398,-286,-66,358,400,-84
374,1,2022-09-30T20:10:09.182928,1373418,-1629,434,-906,-1411,-323,2,358,400,-84
375,1,2022-09-30T20:10:09.193788,1373429,-1629,434,-906,-1411,-323,2,358,400,-84
376,1,2022-09-30T20:10:09.205421,1373441,-1620,443,-910,-1443,-383,28,358,400,-84
377,1,2022-09-30T20:10:09.215678,1373452,-1620,443,-910,-1443,-383,28,358,400,-84
378,1,2022-09-30T20:10:09.228902,1373464,-1616,442,-909,-1499,-427,64,357,391,-93
379,1,2022-09-30T20:10:09.239180,1373474,-1615,440,-908,-1510,-378,50,357,391,-93
380,1,2022-09-30T20:10:09.248433,1373484,-1615,440,-908,-1510,-378,50,357,391,-93
381,1,2022-09-30T20:10:09.257770,1373491,-1615,440,-908,-1510,-378,50,357,391,-93
382,1,2022-09-30T20:10:09.266759,1373502,-1620,439,-913,-1477,-335,31,357,391,-93
383,1,2022-09-30T20:10:09.273320,1373508,-1620,439,-913,-1477,-335,31,357,391,-93
384,1,2022-09-30T20:10:09.282547,1373517,-1627,445,-913,-1430,-334,31,357,391,-93
385,1,2022-09-30T20:10:09.289063,1373523,-1627,445,-913,-1430,-334,31,357,391,-93
386,1,2022-09-30T20:10:09.300721,1373536,-1622,445,-910,-1402,-359,9,357,391,-93
387,1,2022-09-30T20:10:09.309276,1373544,-1622,445,-910,-1402,-359,9,357,391,-93
388,1,2022-09-30T20:10:09.317608,1373552,-1622,445,-910,-1402,-359,9,357,391,-93
389,1,2022-09-30T20:10:09.324765,1373559,-1622,446,-908,-1406,-370,-28,357,391,-93
390,1,2022-09-30T20:10:09.335003,1373570,-1622,446,-908,-1406,-370,-28,357,391,-93
391,1,2022-09-30T20:10:09.343261,1373579,-1617,447,-905,-1434,-359,-81,362,394,-88
392,1,2022-09-30T20:10:09.352593,1373587,-1617,447,-905,-1434,-359,-81,362,394,-88
393,1,2022-09-30T20:10:09.364749,1373600,-1621,442,-907,-1452,-322,-121,362,394,-88
394,1,2022-09-30T20:10:09.373511,1373608,-1621,442,-907,-1452,-322,-121,362,394,-88
395,1,2022-09-30T20:10:09.381684,1373617,-1623,435,-906,-1461,-316,-124,362,394,-88
396,1,2022-09-30T20:10:09.391123,1373626,-1623,435,-906,-1461,-316,-124,362,394,-88
397,1,2022-09-30T20:10:09.397400,1373632,-1623,435,-906,-1461,-316,-124,362,394,-88
398,1,2022-09-30T20:10:09.406178,1373641,-1622,435,-917,-1444,-338,-110,362,394,-88
399,1,2022-09-30T20:10:09.421712,1373650,-1622,435,-917,-1444,-338,-110,362,394,-88
400,1,2022-09-30T20:10:09.431341,1373666,-1622,435,-917,-1444,-338,-110,362,394,-88
401,1,2022-09-30T20:10:09.439487,1373675,-1620,438,-912,-1402,-397,-104,362,394,-88
402,1,2022-09-30T20:10:09.449195,1373684,-1620,438,-912,-1402,-397,-104,362,394,-88
403,1,2022-09-30T20:10:09.457534,1373692,-1620,438,-912,-1402,-397,-104,362,394,-88
404,1,2022-09-30T20:10:09.464326,1373700,-1623,446,-909,-1413,-398,-126,362,394,-88
405,1,2022-09-30T20:10:09.472833,1373708,-1623,446,-909,-1413,-398,-126,362,394,-88
406,1,2022-09-30T20:10:09.484222,1373719,-1629,447,-902,-1435,-410,-126,361,395,-93
407,1,2022-09-30T20:10:09.493698,1373729,-1629,447,-902,-1435,-410,-126,361,395,-93
408,1,2022-09-30T20:10:09.510664,1373745,-1620,443,-908,-1476,-459,-106,361,395,-93
409,1,2022-09-30T20:10:09.521546,1373757,-1618,436,-901,-1517,-498,-101,361,395,-93
410,1,2022-09-30T20:10:09.530909,1373766,-1618,436,-901,-1517,-498,-101,361,395,-93
411,1,2022-09-30T20:10:09.541975,1373777,-1614,438,-898,-1540,-504,-125,361,395,-93
412,1,2022-09-30T20:10:09.549299,1373784,-1614,438,-898,-1540,-504,-125,361,395,-93
413,1,2022-09-30T20:10:09.560188,1373795,-1616,438,-902,-1542,-467,-164,361,395,-93
414,1,2022-09-30T20:10:09.571402,1373805,-1616,438,-902,-1542,-467,-164,361,395,-93
415,1,2022-09-30T20:10:09.579744,1373815,-1623,429,-901,-1528,-424,-155,361,395,-93
416,1,2022-09-30T20:10:09.585872,1373821,-1623,429,-901,-1528,-424,-155,361,395,-93
417,1,2022-09-30T20:10:09.593402,1373829,-1623,429,-901,-1528,-424,-155,361,395,-93
418,1,2022-09-30T20:10:09.599692,1373836,-1621,430,-897,-1505,-432,-156,355,401,-93
419,1,2022-09-30T20:10:09.611628,1373841,-1621,430,-897,-1505,-432,-156,355,401,-93
420,1,2022-09-30T20:10:09.617833,1373853,-1621,430,-897,-1505,-432,-156,355,401,-93
421,1,2022-09-30T20:10:09.630014,1373865,-1614,437,-896,-1492,-476,-200,355,401,-93
422,1,2022-09-30T20:10:09.640252,1373876,-1627,439,-896,-1495,-467,-229,355,401,-93
423,1,2022-09-30T20:10:09.649340,1373884,-1627,439,-896,-1495,-467,-229,355,401,-93
424,1,2022-09-30T20:10:09.662022,1373897,-1621,433,-898,-1558,-475,-166,355,401,-93
425,1,2022-09-30T20:10:09.671293,1373905,-1621,433,-898,-1558,-475,-166,355,401,-93
426,1,2022-09-30T20:10:09.684480,1373920,-1614,425,-894,-1597,-446,-97,355,401,-93
427,1,2022-09-30T20:10:09.695033,1373930,-1614,425,-894,-1597,-446,-97,355,401,-93
428,1,2022-09-30T20:10:09.708490,1373943,-1616,416,-892,-1558,-368,-116,355,401,-93
429,1,2022-09-30T20:10:09.715032,1373950,-1616,416,-892,-1558,-368,-116,355,401,-93
430,1,2022-09-30T20:10:09.722953,1373957,-1617,415,-896,-1457,-301,-170,361,393,-89
431,1,2022-09-30T20:10:09.736320,1373971,-1617,415,-896,-1457,-301,-170,361,393,-89
432,1,2022-09-30T20:10:09.747297,1373982,-1618,417,-899,-1364,-276,-185,361,393,-89
433,1,2022-09-30T20:10:09.759703,1373995,-1622,422,-898,-1325,-278,-145,361,393,-89
434,1,2022-09-30T20:10:09.772324,1374007,-1622,422,-898,-1325,-278,-145,361,393,-89
435,1,2022-09-30T20:10:09.785073,1374020,-1624,424,-902,-1336,-320,-102,361,393,-89
436,1,2022-09-30T20:10:09.791950,1374027,-1624,424,-902,-1336,-320,-102,361,393,-89
437,1,2022-09-30T20:10:09.803653,1374039,-1620,418,-900,-1340,-355,-88,361,393,-89
438,1,2022-09-30T20:10:09.812325,1374048,-1620,418,-900,-1340,-355,-88,361,393,-89
439,1,2022-09-30T20:10:09.823341,1374058,-1617,422,-898,-1314,-346,-94,361,393,-89
440,1,2022-09-30T20:10:09.836130,1374071,-1617,422,-898,-1314,-346,-94,361,393,-89
441,1,2022-09-30T20:10:09.844650,1374080,-1629,438,-896,-1327,-350,-79,360,396,-90
442,1,2022-09-30T20:10:09.852926,1374088,-1629,438,-896,-1327,-350,-79,360,396,-90
443,1,2022-09-30T20:10:09.861043,1374096,-1625,442,-891,-1427,-442,-24,360,396,-90
444,1,2022-09-30T20:10:09.871465,1374106,-1625,442,-891,-1427,-442,-24,360,396,-90
445,1,2022-09-30T20:10:09.880628,1374115,-1614,443,-889,-1534,-478,18,360,396,-90
446,1,2022-09-30T20:10:09.891230,1374127,-1614,443,-889,-1534,-478,18,360,396,-90
447,1,2022-09-30T20:10:09.900183,1374135,-1618,436,-890,-1597,-415,14,360,396,-90
448,1,2022-09-30T20:10:09.907459,1374143,-1618,436,-890,-1597,-415,14,360,396,-90
449,1,2022-09-30T20:10:09.917030,1374149,-1618,436,-890,-1597,-415,14,360,396,-90
450,1,2022-09-30T20:10:09.928199,1374163,-1622,433,-894,-1607,-373,14,360,396,-90
451,1,2022-09-30T20:10:09.939812,1374174,-1619,431,-893,-1584,-375,3,360,396,-90
452,1,2022-09-30T20:10:09.953048,1374187,-1619,431,-893,-1584,-375,3,360,396,-90
453,1,2022-09-30T20:10:09.963966,1374199,-1615,434,-893,-1532,-386,-26,360,396,-90
454,1,2022-09-30T20:10:09.975677,1374210,-1615,434,-893,-1532,-386,-26,360,396,-90
455,1,2022-09-30T20:10:09.987583,1374223,-1620,440,-889,-1486,-375,-73,359,389,-97
456,1,2022-09-30T20:10:09.999780,1374234,-1625,439,-892,-1498,-335,-98,359,389,-97
457,1,2022-09-30T20:10:10.014560,1374251,-1625,439,-892,-1498,-335,-98,359,389,-97
458,1,2022-09-30T20:10:10.024836,1374259,-1625,438,-899,-1530,-327,-106,359,389,-97
459,1,2022-09-30T20:10:10.033804,1374269,-1625,438,-899,-1530,-327,-106,359,389,-97
460,1,2022-09-30T20:10:10.044723,1374280,-1618,435,-894,-1539,-332,-112,359,389,-97
461,1,2022-09-30T20:10:10.059098,1374295,-1620,428,-893,-1510,-312,-144,359,389,-97
462,1,2022-09-30T20:10:10.070035,1374305,-1620,428,-893,-1510,-312,-144,359,389,-97
463,1,2022-09-30T20:10:10.085233,1374320,-1622,429,-895,-1480,-290,-144,359,389,-97
464,1,2022-09-30T20:10:10.102624,1374331,-1622,429,-895,-1480,-290,-144,359,389,-97
465,1,2022-09-30T20:10:10.114606,1374350,-1622,429,-895,-1480,-290,-144,350,394,-92
466,1,2022-09-30T20:10:10.129160,1374364,-1621,435,-899,-1503,-290,-97,350,394,-92
467,1,2022-09-30T20:10:10.141180,1374375,-1619,436,-900,-1512,-301,-75,350,394,-92
468,1,2022-09-30T20:10:10.153273,1374389,-1619,436,-900,-1512,-301,-75,350,394,-92
469,1,2022-09-30T20:10:10.160863,1374397,-1621,434,-899,-1508,-295,-75,350,394,-92
470,1,2022-09-30T20:10:10.169614,1374405,-1621,434,-899,-1508,-295,-75,350,394,-92
471,1,2022-09-30T20:10:10.181846,1374417,-1618,432,-903,-1502,-313,-65,350,394,-92
472,1,2022-09-30T20:10:10.190841,1374427,-1618,432,-903,-1502,-313,-65,350,394,-92
473,1,2022-09-30T20:10:10.200567,1374435,-1621,433,-896,-1504,-325,-79,350,394,-92
474,1,2022-09-30T20:10:10.214303,1374450,-1621,433,-896,-1504,-325,-79,350,394,-92
475,1,2022-09-30T20:10:10.223111,1374458,-1623,435,-896,-1515,-339,-103,359,397,-87
476,1,2022-09-30T20:10:10.228996,1374465,-1623,435,-896,-1515,-339,-103,359,397,-87
477,1,2022-09-30T20:10:10.240967,1374473,-1623,435,-896,-1515,-339,-103,359,397,-87
478,1,2022-09-30T20:10:10.249032,1374485,-1621,431,-899,-1518,-319,-125,359,397,-87
479,1,2022-09-30T20:10:10.258224,1374494,-1621,431,-899,-1518,-319,-125,359,397,-87
480,1,2022-09-30T20:10:10.264206,1374499,-1621,431,-899,-1518,-319,-125,359,397,-87
481,1,2022-09-30T20:10:10.271992,1374507,-1621,431,-899,-1518,-319,-125,359,397,-87
482,1,2022-09-30T20:10:10.279131,1374515,-1620,425,-899,-1509,-269,-143,359,397,-87
483,1,2022-09-30T20:10:10.287608,1374523,-1620,425,-899,-1509,-269,-143,359,397,-87
484,1,2022-09-30T20:10:10.294244,1374530,-1620,425,-899,-1509,-269,-143,359,397,-87
485,1,2022-09-30T20:10:10.310909,1374541,-1620,424,-903,-1498,-273,-146,359,397,-87
486,1,2022-09-30T20:10:10.317181,1374553,-1620,424,-903,-1498,-273,-146,359,397,-87
487,1,2022-09-30T20:10:10.326814,1374563,-1622,428,-906,-1485,-273,-150,359,397,-87
488,1,2022-09-30T20:10:10.337170,1374572,-1622,428,-906,-1485,-273,-150,359,397,-87
489,1,2022-09-30T20:10:10.346185,1374580,-1621,427,-899,-1504,-258,-133,357,395,-95
490,1,2022-09-30T20:10:10.360890,1374597,-1618,422,-902,-1516,-253,-99,357,395,-95
491,1,2022-09-30T20:10:10.372996,1374607,-1618,422,-902,-1516,-253,-99,357,395,-95
492,1,2022-09-30T20:10:10.383095,1374618,-1618,423,-903,-1537,-262,-70,357,395,-95
493,1,2022-09-30T20:10:10.391629,1374627,-1618,423,-903,-1537,-262,-70,357,395,-95
494,1,2022-09-30T20:10:10.399948,1374632,-1618,423,-903,-1537,-262,-70,357,395,-95
495,1,2022-09-30T20:10:10.407142,1374642,-1618,421,-902,-1539,-270,-54,357,395,-95
496,1,2022-09-30T20:10:10.416918,1374653,-1618,421,-902,-1539,-270,-54,357,395,-95
497,1,2022-09-30T20:10:10.433718,1374668,-1626,422,-906,-1536,-272,-55,357,395,-95
498,1,2022-09-30T20:10:10.446115,1374682,-1622,427,-904,-1541,-311,-68,357,395,-95
499,1,2022-09-30T20:10:10.455181,1374691,-1622,427,-904,-1541,-311,-68,357,395,-95
500,1,2022-09-30T20:10:10.466689,1374702,-1609,428,-898,-1567,-370,-84,357,395,-95
501,1,2022-09-30T20:10:10.481964,1374717,-1621,425,-897,-1578,-373,-119,360,392,-84
502,1,2022-09-30T20:10:10.492896,1374728,-1621,425,-897,-1578,-373,-119,360,392,-84
503,1,2022-09-30T20:10:10.505262,1374741,-1629,426,-896,-1595,-404,-147,360,392,-84
504,1,2022-09-30T20:10:10.511491,1374747,-1629,426,-896,-1595,-404,-147,360,392,-84
505,1,2022-09-30T20:10:10.522935,1374755,-1609,418,-899,-1628,-427,-85,360,392,-84
506,1,2022-09-30T20:10:10.533211,1374769,-1609,418,-899,-1628,-427,-85,360,392,-84
507,1,2022-09-30T20:10:10.541456,1374777,-1613,407,-901,-1594,-336,-31,360,392,-84
508,1,2022-09-30T20:10:10.551826,1374787,-1613,407,-901,-1594,-336,-31,360,392,-84
509,1,2022-09-30T20:10:10.563394,1374799,-1611,404,-901,-1501,-260,-1,360,392,-84
510,1,2022-09-30T20:10:10.575619,1374810,-1611,404,-901,-1501,-260,-1,360,392,-84
511,1,2022-09-30T20:10:10.583478,1374819,-1617,409,-906,-1392,-207,-27,360,392,-84
512,1,2022-09-30T20:10:10.592267,1374828,-1617,409,-906,-1392,-207,-27,360,392,-84
513,1,2022-09-30T20:10:10.603202,1374839,-1612,415,-907,-1324,-227,-31,359,391,-89
514,1,2022-09-30T20:10:10.612586,1374849,-1612,415,-907,-1324,-227,-31,359,391,-89
515,1,2022-09-30T20:10:10.629843,1374857,-1619,421,-908,-1303,-212,-7,359,391,-89
516,1,2022-09-30T20:10:10.635577,1374871,-1619,421,-908,-1303,-212,-7,359,391,-89
517,1,2022-09-30T20:10:10.641236,1374876,-1616,425,-909,-1328,-226,-4,359,391,-89
518,1,2022-09-30T20:10:10.649931,1374885,-1616,425,-909,-1328,-226,-4,359,391,-89
519,1,2022-09-30T20:10:10.660462,1374896,-1626,426,-908,-1369,-254,-10,359,391,-89
520,1,2022-09-30T20:10:10.669474,1374905,-1626,426,-908,-1369,-254,-10,359,391,-89
521,1,2022-09-30T20:10:10.684958,1374921,-1625,426,-912,-1409,-302,6,359,391,-89
522,1,2022-09-30T20:10:10.691142,1374926,-1625,426,-912,-1409,-302,6,359,391,-89
523,1,2022-09-30T20:10:10.706122,1374941,-1618,427,-911,-1438,-324,41,359,391,-89
524,1,2022-09-30T20:10:10.716568,1374952,-1618,427,-911,-1438,-324,41,359,391,-89
525,1,2022-09-30T20:10:10.731712,1374966,-1620,432,-905,-1473,-335,75,353,399,-93
526,1,2022-09-30T20:10:10.742015,1374978,-1616,435,-905,-1510,-391,99,353,399,-93
527,1,2022-09-30T20:10:10.754865,1374990,-1616,435,-905,-1510,-391,99,353,399,-93
528,1,2022-09-30T20:10:10.766883,1374998,-1615,432,-906,-1535,-410,101,353,399,-93
529,1,2022-09-30T20:10:10.774966,1375008,-1615,432,-906,-1535,-410,101,353,399,-93
530,1,2022-09-30T20:10:10.785345,1375020,-1625,433,-908,-1515,-367,97,353,399,-93
531,1,2022-09-30T20:10:10.797437,1375032,-1625,433,-908,-1515,-367,97,353,399,-93
532,1,2022-09-30T20:10:10.805646,1375041,-1625,436,-908,-1497,-375,113,353,399,-93
533,1,2022-09-30T20:10:10.815918,1375051,-1625,436,-908,-1497,-375,113,353,399,-93
534,1,2022-09-30T20:10:10.825791,1375057,-1621,441,-903,-1492,-412,107,353,399,-93
535,1,2022-09-30T20:10:10.836185,1375072,-1621,441,-903,-1492,-412,107,353,399,-93
536,1,2022-09-30T20:10:10.845215,1375080,-1615,436,-897,-1484,-442,80,357,395,-95
537,1,2022-09-30T20:10:10.858927,1375094,-1620,440,-902,-1459,-402,18,357,395,-95
538,1,2022-09-30T20:10:10.871334,1375107,-1620,440,-902,-1459,-402,18,357,395,-95
539,1,2022-09-30T20:10:10.877293,1375113,-1620,440,-902,-1459,-402,18,357,395,-95
540,1,2022-09-30T20:10:10.884483,1375120,-1621,439,-897,-1473,-390,-15,357,395,-95
541,1,2022-09-30T20:10:10.895097,1375130,-1621,439,-897,-1473,-390,-15,357,395,-95
542,1,2022-09-30T20:10:10.907546,1375142,-1622,439,-899,-1496,-393,3,357,395,-95
543,1,2022-09-30T20:10:10.917033,1375152,-1622,439,-899,-1496,-393,3,357,395,-95
544,1,2022-09-30T20:10:10.928718,1375164,-1626,441,-894,-1512,-401,36,357,395,-95
545,1,2022-09-30T20:10:10.940473,1375175,-1615,439,-897,-1525,-428,68,357,395,-95
546,1,2022-09-30T20:10:10.953063,1375187,-1615,439,-897,-1525,-428,68,357,395,-95
547,1,2022-09-30T20:10:10.964676,1375200,-1620,440,-896,-1506,-398,69,356,398,-100
548,1,2022-09-30T20:10:10.976629,1375211,-1620,440,-896,-1506,-398,69,356,398,-100
549,1,2022-09-30T20:10:10.986026,1375221,-1625,449,-889,-1480,-367,61,356,398,-100
550,1,2022-09-30T20:10:10.995481,1375230,-1625,449,-889,-1480,-367,61,356,398,-100
551,1,2022-09-30T20:10:11.004588,1375240,-1622,446,-891,-1487,-361,54,356,398,-100
552,1,2022-09-30T20:10:11.013339,1375249,-1622,446,-891,-1487,-361,54,356,398,-100
553,1,2022-09-30T20:10:11.021179,1375257,-1613,448,-885,-1497,-365,35,356,398,-100
554,1,2022-09-30T20:10:11.034075,1375269,-1613,448,-885,-1497,-365,35,356,398,-100
555,1,2022-09-30T20:10:11.042663,1375278,-1617,445,-878,-1503,-335,-11,356,398,-100
556,1,2022-09-30T20:10:11.056862,1375293,-1617,445,-878,-1503,-335,-11,356,398,-100
557,1,2022-09-30T20:10:11.062972,1375298,-1628,436,-881,-1488,-292,-121,356,398,-100
558,1,2022-09-30T20:10:11.072110,1375307,-1628,436,-881,-1488,-292,-121,356,398,-100
559,1,2022-09-30T20:10:11.086644,1375322,-1614,425,-879,-1475,-277,-222,356,398,-100
560,1,2022-09-30T20:10:11.096498,1375332,-1614,425,-879,-1475,-277,-222,356,398,-100
561,1,2022-09-30T20:10:11.105742,1375341,-1617,413,-871,-1417,-163,-347,362,396,-92
562,1,2022-09-30T20:10:11.116446,1375351,-1617,413,-871,-1417,-163,-347,362,396,-92
563,1,2022-09-30T20:10:11.128695,1375364,-1612,404,-883,-1343,-63,-426,362,396,-92
564,1,2022-09-30T20:10:11.139391,1375375,-1611,397,-893,-1273,18,-418,362,396,-92
565,1,2022-09-30T20:10:11.149678,1375384,-1611,397,-893,-1273,18,-418,362,396,-92
566,1,2022-09-30T20:10:11.159490,1375395,-1616,392,-900,-1171,91,-313,362,396,-92
567,1,2022-09-30T20:10:11.169360,1375405,-1616,392,-900,-1171,91,-313,362,396,-92
568,1,2022-09-30T20:10:11.183572,1375419,-1618,398,-906,-1111,110,-159,362,396,-92
569,1,2022-09-30T20:10:11.194459,1375430,-1618,398,-906,-1111,110,-159,362,396,-92
570,1,2022-09-30T20:10:11.206518,1375442,-1614,406,-909,-1100,78,13,362,396,-92
571,1,2022-09-30T20:10:11.215107,1375451,-1614,406,-909,-1100,78,13,362,396,-92
572,1,2022-09-30T20:10:11.226677,1375461,-1614,418,-913,-1101,64,151,356,396,-96
573,1,2022-09-30T20:10:11.237541,1375473,-1614,418,-913,-1101,64,151,356,396,-96
574,1,2022-09-30T20:10:11.246366,1375481,-1618,423,-926,-1129,56,254,356,396,-96
575,1,2022-09-30T20:10:11.257715,1375494,-1618,423,-926,-1129,56,254,356,396,-96
576,1,2022-09-30T20:10:11.267626,1375501,-1622,435,-929,-1171,3,310,356,396,-96
577,1,2022-09-30T20:10:11.279087,1375514,-1620,448,-933,-1220,-47,309,356,396,-96
578,1,2022-09-30T20:10:11.291830,1375527,-1620,448,-933,-1220,-47,309,356,396,-96
579,1,2022-09-30T20:10:11.302291,1375536,-1625,457,-935,-1278,-121,293,356,396,-96
580,1,2022-09-30T20:10:11.311385,1375547,-1625,457,-935,-1278,-121,293,356,396,-96
581,1,2022-09-30T20:10:11.317501,1375553,-1625,457,-935,-1278,-121,293,356,396,-96
582,1,2022-09-30T20:10:11.325989,1375560,-1625,458,-928,-1363,-210,272,356,396,-96
583,1,2022-09-30T20:10:11.338740,1375575,-1625,458,-928,-1363,-210,272,356,396,-96
584,1,2022-09-30T20:10:11.347346,1375582,-1622,458,-933,-1441,-250,281,365,397,-89
585,1,2022-09-30T20:10:11.357526,1375593,-1622,458,-933,-1441,-250,281,365,397,-89
586,1,2022-09-30T20:10:11.368215,1375604,-1622,445,-932,-1471,-234,250,365,397,-89
587,1,2022-09-30T20:10:11.376846,1375609,-1622,445,-932,-1471,-234,250,365,397,-89
588,1,2022-09-30T20:10:11.385712,1375622,-1616,442,-936,-1436,-205,158,365,397,-89
589,1,2022-09-30T20:10:11.393796,1375630,-1616,442,-936,-1436,-205,158,365,397,-89
590,1,2022-09-30T20:10:11.401215,1375637,-1613,443,-939,-1372,-175,45,365,397,-89
591,1,2022-09-30T20:10:11.411177,1375646,-1613,443,-939,-1372,-175,45,365,397,-89
592,1,2022-09-30T20:10:11.422343,1375657,-1617,447,-938,-1321,-130,-15,365,397,-89
593,1,2022-09-30T20:10:11.432716,1375668,-1617,447,-938,-1321,-130,-15,365,397,-89
594,1,2022-09-30T20:10:11.449978,1375683,-1615,452,-941,-1301,-155,34,365,397,-89
595,1,2022-09-30T20:10:11.459514,1375695,-1618,456,-941,-1330,-195,73,356,394,-94
596,1,2022-09-30T20:10:11.469394,1375705,-1618,456,-941,-1330,-195,73,356,394,-94
597,1,2022-09-30T20:10:11.481457,1375717,-1622,460,-937,-1375,-240,91,356,394,-94
598,1,2022-09-30T20:10:11.491382,1375727,-1622,460,-937,-1375,-240,91,356,394,-94
599,1,2022-09-30T20:10:11.500085,1375735,-1625,460,-947,-1401,-285,115,356,394,-94
600,1,2022-09-30T20:10:11.508178,1375744,-1625,460,-947,-1401,-285,115,356,394,-94
601,1,2022-09-30T20:10:11.514404,1375750,-1625,460,-947,-1401,-285,115,356,394,-94
602,1,2022-09-30T20:10:11.523720,1375758,-1621,465,-942,-1421,-339,161,356,394,-94
603,1,2022-09-30T20:10:11.537458,1375773,-1621,465,-942,-1421,-339,161,356,394,-94
604,1,2022-09-30T20:10:11.551116,1375783,-1624,472,-937,-1462,-422,148,356,394,-94
605,1,2022-09-30T20:10:11.561592,1375797,-1611,474,-931,-1533,-526,133,356,394,-94
606,1,2022-09-30T20:10:11.571660,1375807,-1611,474,-931,-1533,-526,133,356,394,-94
607,1,2022-09-30T20:10:11.579762,1375816,-1614,470,-935,-1578,-510,93,356,394,-94
608,1,2022-09-30T20:10:11.587419,1375823,-1614,470,-935,-1578,-510,93,356,394,-94
609,1,2022-09-30T20:10:11.593918,1375830,-1614,470,-935,-1578,-510,93,356,394,-94
610,1,2022-09-30T20:10:11.604671,1375841,-1628,464,-931,-1595,-487,52,350,400,-100
611,1,2022-09-30T20:10:11.613859,1375850,-1628,464,-931,-1595,-487,52,350,400,-100
612,1,2022-09-30T20:10:11.624772,1375859,-1629,462,-930,-1591,-531,-18,350,400,-100
613,1,2022-09-30T20:10:11.637417,1375874,-1629,462,-930,-1591,-531,-18,350,400,-100
614,1,2022-09-30T20:10:11.645679,1375881,-1618,454,-922,-1588,-592,-89,350,400,-100
615,1,2022-09-30T20:10:11.660752,1375896,-1614,445,-924,-1576,-623,-138,350,400,-100
616,1,2022-09-30T20:10:11.674340,1375908,-1614,445,-924,-1576,-623,-138,350,400,-100
617,1,2022-09-30T20:10:11.686169,1375922,-1621,444,-920,-1551,-605,-218,350,400,-100
618,1,2022-09-30T20:10:11.694356,1375930,-1621,444,-920,-1551,-605,-218,350,400,-100
619,1,2022-09-30T20:10:11.707603,1375940,-1623,443,-912,-1554,-596,-253,350,400,-100
620,1,2022-09-30T20:10:11.714983,1375950,-1623,443,-912,-1554,-596,-253,350,400,-100
621,1,2022-09-30T20:10:11.724466,1375959,-1624,433,-911,-1602,-618,-209,364,392,-94
622,1,2022-09-30T20:10:11.736424,1375972,-1624,433,-911,-1602,-618,-209,364,392,-94
623,1,2022-09-30T20:10:11.746573,1375982,-1624,421,-911,-1607,-615,-134,364,392,-94
624,1,2022-09-30T20:10:11.758956,1375994,-1624,421,-911,-1607,-615,-134,364,392,-94
625,1,2022-09-30T20:10:11.768689,1376005,-1619,418,-905,-1589,-628,-56,364,392,-94
626,1,2022-09-30T20:10:11.776772,1376011,-1619,418,-905,-1589,-628,-56,364,392,-94
627,1,2022-09-30T20:10:11.786298,1376022,-1619,422,-898,-1571,-635,0,364,392,-94
628,1,2022-09-30T20:10:11.793001,1376028,-1619,422,-898,-1571,-635,0,364,392,-94
629,1,2022-09-30T20:10:11.805999,1376040,-1620,427,-895,-1555,-617,51,364,392,-94
630,1,2022-09-30T20:10:11.812597,1376048,-1620,427,-895,-1555,-617,51,364,392,-94
631,1,2022-09-30T20:10:11.827419,1376063,-1621,427,-893,-1567,-586,118,364,392,-94
632,1,2022-09-30T20:10:11.836548,1376072,-1621,427,-893,-1567,-586,118,364,392,-94
633,1,2022-09-30T20:10:11.844197,1376079,-1620,433,-894,-1575,-564,172,350,398,-92
634,1,2022-09-30T20:10:11.857169,1376092,-1620,433,-894,-1575,-564,172,350,398,-92
635,1,2022-09-30T20:10:11.868405,1376104,-1619,442,-889,-1563,-537,208,350,398,-92
636,1,2022-09-30T20:10:11.885064,1376120,-1620,446,-898,-1537,-517,225,350,398,-92
637,1,2022-09-30T20:10:11.895304,1376131,-1620,446,-898,-1537,-517,225,350,398,-92
638,1,2022-09-30T20:10:11.908453,1376144,-1619,456,-893,-1499,-507,227,350,398,-92
639,1,2022-09-30T20:10:11.914454,1376150,-1619,456,-893,-1499,-507,227,350,398,-92
640,1,2022-09-30T20:10:11.920160,1376156,-1619,463,-895,-1486,-492,234,350,398,-92
641,1,2022-09-30T20:10:11.931485,1376167,-1619,463,-895,-1486,-492,234,350,398,-92
642,1,2022-09-30T20:10:11.941381,1376178,-1622,469,-895,-1496,-486,224,350,398,-92
643,1,2022-09-30T20:10:11.949193,1376184,-1622,469,-895,-1496,-486,224,350,398,-92
644,1,2022-09-30T20:10:11.965051,1376201,-1620,469,-893,-1492,-457,193,358,394,-86
645,1,2022-09-30T20:10:11.976603,1376212,-1620,469,-893,-1492,-457,193,358,394,-86
646,1,2022-09-30T20:10:11.989041,1376225,-1615,469,-891,-1473,-406,170,358,394,-86
647,1,2022-09-30T20:10:11.995978,1376232,-1615,469,-891,-1473,-406,170,358,394,-86
648,1,2022-09-30T20:10:12.010899,1376246,-1617,470,-897,-1433,-368,149,358,394,-86
649,1,2022-09-30T20:10:12.016456,1376252,-1617,470,-897,-1433,-368,149,358,394,-86
650,1,2022-09-30T20:10:12.023405,1376259,-1619,472,-899,-1386,-323,92,358,394,-86
651,1,2022-09-30T20:10:12.034432,1376269,-1619,472,-899,-1386,-323,92,358,394,-86
652,1,2022-09-30T20:10:12.041825,1376278,-1621,477,-900,-1351,-272,29,358,394,-86
653,1,2022-09-30T20:10:12.049342,1376285,-1621,477,-900,-1351,-272,29,358,394,-86
654,1,2022-09-30T20:10:12.056690,1376291,-1621,477,-900,-1351,-272,29,358,394,-86
655,1,2022-09-30T20:10:12.064080,1376301,-1623,481,-899,-1374,-245,-25,358,394,-86
656,1,2022-09-30T20:10:12.071606,1376307,-1623,481,-899,-1374,-245,-25,358,394,-86
657,1,2022-09-30T20:10:12.082809,1376317,-1634,486,-901,-1417,-261,-88,358,394,-86
658,1,2022-09-30T20:10:12.092205,1376328,-1634,486,-901,-1417,-261,-88,358,394,-86
659,1,2022-09-30T20:10:12.103450,1376335,-1636,480,-900,-1462,-316,-97,358,394,-86
660,1,2022-09-30T20:10:12.112809,1376349,-1636,480,-900,-1462,-316,-97,364,402,-92
661,1,2022-09-30T20:10:12.124380,1376360,-1619,468,-902,-1477,-345,-70,364,402,-92
662,1,2022-09-30T20:10:12.136019,1376372,-1619,468,-902,-1477,-345,-70,364,402,-92
663,1,2022-09-30T20:10:12.145438,1376380,-1622,454,-902,-1413,-251,-68,364,402,-92
664,1,2022-09-30T20:10:12.155214,1376391,-1622,454,-902,-1413,-251,-68,364,402,-92
665,1,2022-09-30T20:10:12.163526,1376399,-1624,449,-912,-1322,-181,-105,364,402,-92
666,1,2022-09-30T20:10:12.169092,1376405,-1624,449,-912,-1322,-181,-105,364,402,-92
667,1,2022-09-30T20:10:12.179818,1376415,-1626,454,-910,-1220,-183,-136,364,402,-92
668,1,2022-09-30T20:10:12.189182,1376424,-1626,454,-910,-1220,-183,-136,364,402,-92
669,1,2022-09-30T20:10:12.195654,1376432,-1626,454,-910,-1220,-183,-136,364,402,-92
670,1,2022-09-30T20:10:12.203155,1376439,-1624,461,-918,-1160,-204,-131,364,402,-92
671,1,2022-09-30T20:10:12.209110,1376445,-1624,461,-918,-1160,-204,-131,364,402,-92
672,1,2022-09-30T20:10:12.214572,1376451,-1624,461,-918,-1160,-204,-131,364,402,-92
673,1,2022-09-30T20:10:12.221827,1376458,-1621,466,-914,-1165,-225,-88,363,397,-87
674,1,2022-09-30T20:10:12.229471,1376465,-1621,466,-914,-1165,-225,-88,363,397,-87
675,1,2022-09-30T20:10:12.235771,1376471,-1621,466,-914,-1165,-225,-88,363,397,-87
676,1,2022-09-30T20:10:12.242673,1376479,-1627,474,-917,-1219,-259,-28,363,397,-87
677,1,2022-09-30T20:10:12.249317,1376484,-1627,474,-917,-1219,-259,-28,363,397,-87
678,1,2022-09-30T20:10:12.256480,1376493,-1627,474,-917,-1219,-259,-28,363,397,-87
679,1,2022-09-30T20:10:12.263427,1376499,-1634,479,-915,-1308,-322,-2,363,397,-87
680,1,2022-09-30T20:10:12.268665,1376504,-1634,479,-915,-1308,-322,-2,363,397,-87
681,1,2022-09-30T20:10:12.278150,1376514,-1634,479,-915,-1308,-322,-2,363,397,-87
682,1,2022-09-30T20:10:12.285217,1376521,-1626,478,-913,-1410,-405,7,363,397,-87
683,1,2022-09-30T20:10:12.292219,1376529,-1626,478,-913,-1410,-405,7,363,397,-87
684,1,2022-09-30T20:10:12.299952,1376535,-1626,478,-913,-1410,-405,7,363,397,-87
685,1,2022-09-30T20:10:12.306173,1376542,-1624,480,-908,-1497,-482,0,363,397,-87
686,1,2022-09-30T20:10:12.312705,1376548,-1624,480,-908,-1497,-482,0,363,397,-87
687,1,2022-09-30T20:10:12.319811,1376556,-1628,477,-903,-1546,-548,-10,363,397,-87
688,1,2022-09-30T20:10:12.330844,1376567,-1628,477,-903,-1546,-548,-10,363,397,-87
689,1,2022-09-30T20:10:12.338152,1376574,-1628,477,-903,-1546,-548,-10,363,397,-87
690,1,2022-09-30T20:10:12.344964,1376581,-1617,481,-891,-1598,-614,-20,358,398,-96
691,1,2022-09-30T20:10:12.353666,1376590,-1617,481,-891,-1598,-614,-20,358,398,-96
692,1,2022-09-30T20:10:12.359586,1376595,-1617,481,-888,-1636,-581,-35,358,398,-96
693,1,2022-09-30T20:10:12.366789,1376603,-1617,481,-888,-1636,-581,-35,358,398,-96
694,1,2022-09-30T20:10:12.373619,1376609,-1617,481,-888,-1636,-581,-35,358,398,-96
695,1,2022-09-30T20:10:12.380928,1376617,-1627,473,-891,-1644,-515,-74,358,398,-96
696,1,2022-09-30T20:10:12.387905,1376624,-1627,473,-891,-1644,-515,-74,358,398,-96
697,1,2022-09-30T20:10:12.393873,1376629,-1627,473,-891,-1644,-515,-74,358,398,-96
698,1,2022-09-30T20:10:12.402292,1376638,-1626,463,-893,-1628,-500,-124,358,398,-96
699,1,2022-09-30T20:10:12.409515,1376646,-1626,463,-893,-1628,-500,-124,358,398,-96
700,1,2022-09-30T20:10:12.415303,1376652,-1626,463,-893,-1628,-500,-124,358,398,-96
701,1,2022-09-30T20:10:12.423114,1376658,-1623,462,-891,-1569,-510,-190,358,398,-96
702,1,2022-09-30T20:10:12.430619,1376667,-1623,462,-891,-1569,-510,-190,358,398,-96
703,1,2022-09-30T20:10:12.436346,1376672,-1623,462,-891,-1569,-510,-190,358,398,-96
704,1,2022-09-30T20:10:12.443628,1376679,-1617,459,-887,-1501,-496,-269,358,398,-96
705,1,2022-09-30T20:10:12.451832,1376686,-1617,459,-887,-1501,-496,-269,358,398,-96
706,1,2022-09-30T20:10:12.457658,1376694,-1617,459,-887,-1501,-496,-269,358,398,-96
707,1,2022-09-30T20:10:12.464569,1376701,-1622,458,-885,-1450,-440,-307,357,401,-85
708,1,2022-09-30T20:10:12.471557,1376707,-1622,458,-885,-1450,-440,-307,357,401,-85
709,1,2022-09-30T20:10:12.477797,1376713,-1622,458,-885,-1450,-440,-307,357,401,-85
710,1,2022-09-30T20:10:12.484558,1376720,-1619,449,-881,-1431,-382,-315,357,401,-85
711,1,2022-09-30T20:10:12.491862,1376728,-1619,449,-881,-1431,-382,-315,357,401,-85
712,1,2022-09-30T20:10:12.499591,1376735,-1619,449,-881,-1431,-382,-315,357,401,-85
713,1,2022-09-30T20:10:12.505326,1376741,-1624,441,-880,-1410,-337,-305,357,401,-85
714,1,2022-09-30T20:10:12.512381,1376748,-1624,441,-880,-1410,-337,-305,357,401,-85
715,1,2022-09-30T20:10:12.519367,1376755,-1621,442,-890,-1367,-297,-297,357,401,-85
716,1,2022-09-30T20:10:12.526459,1376762,-1621,442,-890,-1367,-297,-297,357,401,-85
717,1,2022-09-30T20:10:12.531757,1376768,-1621,442,-890,-1367,-297,-297,357,401,-85
718,1,2022-09-30T20:10:12.539272,1376775,-1621,442,-890,-1367,-297,-297,357,401,-85
719,1,2022-09-30T20:10:12.544767,1376781,-1619,444,-889,-1328,-250,-267,357,401,-85
720,1,2022-09-30T20:10:12.551695,1376787,-1619,444,-889,-1328,-250,-267,357,401,-85
721,1,2022-09-30T20:10:12.557531,1376793,-1619,444,-889,-1328,-250,-267,357,401,-85
722,1,2022-09-30T20:10:12.564443,1376800,-1628,445,-891,-1316,-209,-188,357,401,-85
723,1,2022-09-30T20:10:12.571443,1376807,-1628,445,-891,-1316,-209,-188,357,401,-85
724,1,2022-09-30T20:10:12.578718,1376815,-1628,445,-891,-1316,-209,-188,357,401,-85
725,1,2022-09-30T20:10:12.585603,1376822,-1624,444,-896,-1330,-222,-114,357,401,-85
726,1,2022-09-30T20:10:12.593321,1376829,-1624,444,-896,-1330,-222,-114,357,401,-85
727,1,2022-09-30T20:10:12.601012,1376837,-1624,446,-895,-1355,-216,-66,354,394,-86
728,1,2022-09-30T20:10:12.608210,1376844,-1624,446,-895,-1355,-216,-66,354,394,-86
729,1,2022-09-30T20:10:12.614062,1376850,-1624,446,-895,-1355,-216,-66,354,394,-86
730,1,2022-09-30T20:10:12.621238,1376858,-1626,454,-901,-1369,-229,-50,354,394,-86
731,1,2022-09-30T20:10:12.630262,1376867,-1626,454,-901,-1369,-229,-50,354,394,-86
732,1,2022-09-30T20:10:12.635702,1376872,-1626,454,-901,-1369,-229,-50,354,394,-86
733,1,2022-09-30T20:10:12.642538,1376879,-1625,455,-897,-1390,-268,-37,354,394,-86
734,1,2022-09-30T20:10:12.649884,1376885,-1625,455,-897,-1390,-268,-37,354,394,-86
735,1,2022-09-30T20:10:12.656103,1376891,-1625,455,-897,-1390,-268,-37,354,394,-86
736,1,2022-09-30T20:10:12.662264,1376898,-1623,453,-899,-1415,-298,-7,354,394,-86
737,1,2022-09-30T20:10:12.669131,1376906,-1623,453,-899,-1415,-298,-7,354,394,-86
738,1,2022-09-30T20:10:12.675170,1376911,-1623,453,-899,-1415,-298,-7,354,394,-86
739,1,2022-09-30T20:10:12.682467,1376919,-1621,452,-894,-1436,-317,-15,354,394,-86
740,1,2022-09-30T20:10:12.690319,1376926,-1621,452,-894,-1436,-317,-15,354,394,-86
741,1,2022-09-30T20:10:12.696691,1376932,-1621,452,-894,-1436,-317,-15,354,394,-86
742,1,2022-09-30T20:10:12.705538,1376942,-1617,453,-896,-1467,-336,-30,354,394,-86
743,1,2022-09-30T20:10:12.712495,1376949,-1617,453,-896,-1467,-336,-30,354,394,-86
744,1,2022-09-30T20:10:12.719822,1376956,-1623,447,-891,-1458,-325,-58,354,394,-86
745,1,2022-09-30T20:10:12.727389,1376963,-1623,447,-891,-1458,-325,-58,354,398,-96
746,1,2022-09-30T20:10:12.733029,1376969,-1623,447,-891,-1458,-325,-58,354,398,-96
747,1,2022-09-30T20:10:12.740334,1376976,-1623,438,-895,-1378,-300,-88,354,398,-96
748,1,2022-09-30T20:10:12.747633,1376984,-1623,438,-895,-1378,-300,-88,354,398,-96
749,1,2022-09-30T20:10:12.754968,1376991,-1623,438,-895,-1378,-300,-88,354,398,-96
750,1,2022-09-30T20:10:12.762193,1376998,-1629,435,-899,-1238,-301,-99,354,398,-96
751,1,2022-09-30T20:10:12.768861,1377005,-1629,435,-899,-1238,-301,-99,354,398,-96
752,1,2022-09-30T20:10:12.774374,1377010,-1629,435,-899,-1238,-301,-99,354,398,-96
753,1,2022-09-30T20:10:12.780911,1377017,-1631,440,-890,-1083,-322,-152,354,398,-96
754,1,2022-09-30T20:10:12.787578,1377025,-1631,440,-890,-1083,-322,-152,354,398,-96
755,1,2022-09-30T20:10:12.792938,1377030,-1631,440,-890,-1083,-322,-152,354,398,-96
756,1,2022-09-30T20:10:12.799739,1377036,-1625,446,-894,-999,-328,-203,354,398,-96
757,1,2022-09-30T20:10:12.806360,1377043,-1625,446,-894,-999,-328,-203,354,398,-96
758,1,2022-09-30T20:10:12.811557,1377048,-1625,446,-894,-999,-328,-203,354,398,-96
759,1,2022-09-30T20:10:12.817910,1377054,-1625,446,-894,-999,-328,-203,354,398,-96
760,1,2022-09-30T20:10:12.823629,1377059,-1616,448,-896,-987,-271,-223,354,398,-96
761,1,2022-09-30T20:10:12.830739,1377067,-1616,448,-896,-987,-271,-223,354,398,-96
762,1,2022-09-30T20:10:12.836432,1377073,-1616,448,-896,-987,-271,-223,354,398,-96
763,1,2022-09-30T20:10:12.843695,1377080,-1615,442,-895,-1023,-175,-226,357,401,-85
764,1,2022-09-30T20:10:12.850611,1377086,-1615,442,-895,-1023,-175,-226,357,401,-85
765,1,2022-09-30T20:10:12.855992,1377092,-1615,442,-895,-1023,-175,-226,357,401,-85
766,1,2022-09-30T20:10:12.863416,1377099,-1625,443,-897,-1082,-158,-171,357,401,-85
767,1,2022-09-30T20:10:12.871152,1377107,-1625,443,-897,-1082,-158,-171,357,401,-85
768,1,2022-09-30T20:10:12.877898,1377114,-1625,443,-897,-1082,-158,-171,357,401,-85
769,1,2022-09-30T20:10:12.883613,1377120,-1633,452,-902,-1176,-257,-47,357,401,-85
770,1,2022-09-30T20:10:12.891148,1377127,-1633,452,-902,-1176,-257,-47,357,401,-85
771,1,2022-09-30T20:10:12.897601,1377133,-1633,452,-902,-1176,-257,-47,357,401,-85
772,1,2022-09-30T20:10:12.907660,1377143,-1621,451,-902,-1306,-356,119,357,401,-85
773,1,2022-09-30T20:10:12.915358,1377152,-1621,451,-902,-1306,-356,119,357,401,-85
774,1,2022-09-30T20:10:12.923013,1377159,-1625,451,-905,-1380,-325,205,357,401,-85
775,1,2022-09-30T20:10:12.931825,1377168,-1625,451,-905,-1380,-325,205,357,401,-85
776,1,2022-09-30T20:10:12.940412,1377176,-1626,451,-903,-1421,-316,207,357,401,-85
777,1,2022-09-30T20:10:12.949060,1377185,-1626,451,-903,-1421,-316,207,357,401,-85
778,1,2022-09-30T20:10:12.956881,1377192,-1626,451,-903,-1421,-316,207,357,401,-85
779,1,2022-09-30T20:10:12.964048,1377200,-1626,456,-905,-1422,-325,153,356,396,-84
780,1,2022-09-30T20:10:12.969641,1377206,-1626,456,-905,-1422,-325,153,356,396,-84
781,1,2022-09-30T20:10:12.975516,1377211,-1626,456,-905,-1422,-325,153,356,396,-84
782,1,2022-09-30T20:10:12.982561,1377219,-1621,460,-904,-1418,-345,104,356,396,-84
783,1,2022-09-30T20:10:12.992391,1377228,-1621,460,-904,-1418,-345,104,356,396,-84
784,1,2022-09-30T20:10:13.002727,1377236,-1620,463,-905,-1424,-362,78,356,396,-84
785,1,2022-09-30T20:10:13.013600,1377249,-1620,463,-905,-1424,-362,78,356,396,-84
786,1,2022-09-30T20:10:13.022337,1377258,-1621,469,-895,-1448,-383,53,356,396,-84
787,1,2022-09-30T20:10:13.028007,1377264,-1621,469,-895,-1448,-383,53,356,396,-84
788,1,2022-09-30T20:10:13.034179,1377270,-1621,469,-895,-1448,-383,53,356,396,-84
789,1,2022-09-30T20:10:13.041500,1377277,-1632,477,-897,-1509,-422,45,356,396,-84
790,1,2022-09-30T20:10:13.049574,1377286,-1632,477,-897,-1509,-422,45,356,396,-84
791,1,2022-09-30T20:10:13.056727,1377293,-1632,477,-897,-1509,-422,45,356,396,-84
792,1,2022-09-30T20:10:13.061998,1377298,-1625,470,-898,-1600,-466,32,356,396,-84
793,1,2022-09-30T20:10:13.067146,1377303,-1625,470,-898,-1600,-466,32,356,396,-84
794,1,2022-09-30T20:10:13.074333,1377310,-1625,470,-898,-1600,-466,32,356,396,-84
795,1,2022-09-30T20:10:13.086276,1377323,-1616,462,-892,-1632,-454,-4,356,396,-84
796,1,2022-09-30T20:10:13.093592,1377330,-1616,462,-892,-1632,-454,-4,356,396,-84
797,1,2022-09-30T20:10:13.104721,1377341,-1620,460,-887,-1608,-396,-77,366,394,-92
798,1,2022-09-30T20:10:13.109966,1377346,-1620,460,-887,-1608,-396,-77,366,394,-92
799,1,2022-09-30T20:10:13.115773,1377351,-1620,460,-887,-1608,-396,-77,366,394,-92
800,1,2022-09-30T20:10:13.122811,1377358,-1621,464,-886,-1590,-393,-75,366,394,-92
801,1,2022-09-30T20:10:13.133146,1377370,-1621,464,-886,-1590,-393,-75,366,394,-92
802,1,2022-09-30T20:10:13.142572,1377379,-1621,464,-886,-1590,-393,-75,366,394,-92
803,1,2022-09-30T20:10:13.149681,1377385,-1621,464,-886,-1590,-393,-75,366,394,-92
804,1,2022-09-30T20:10:13.156535,1377392,-1621,464,-886,-1590,-393,-75,366,394,-92
805,1,2022-09-30T20:10:13.165854,1377402,-1617,455,-882,-1511,-282,-59,366,394,-92
806,1,2022-09-30T20:10:13.172374,1377408,-1617,455,-882,-1511,-282,-59,366,394,-92
807,1,2022-09-30T20:10:13.179245,1377415,-1617,455,-882,-1511,-282,-59,366,394,-92
808,1,2022-09-30T20:10:13.187734,1377424,-1614,455,-895,-1441,-199,-124,366,394,-92
809,1,2022-09-30T20:10:13.195683,1377431,-1614,455,-895,-1441,-199,-124,366,394,-92
810,1,2022-09-30T20:10:13.212344,1377448,-1623,451,-898,-1370,-117,-191,366,394,-92
811,1,2022-09-30T20:10:13.222918,1377458,-1623,452,-900,-1334,-67,-227,360,402,-80
812,1,2022-09-30T20:10:13.236108,1377472,-1623,452,-900,-1334,-67,-227,360,402,-80
813,1,2022-09-30T20:10:13.244021,1377480,-1627,451,-903,-1320,-49,-214,360,402,-80
814,1,2022-09-30T20:10:13.250441,1377486,-1627,451,-903,-1320,-49,-214,360,402,-80
815,1,2022-09-30T20:10:13.257256,1377494,-1627,451,-903,-1320,-49,-214,360,402,-80
816,1,2022-09-30T20:10:13.266069,1377502,-1628,450,-904,-1313,-62,-181,360,402,-80
817,1,2022-09-30T20:10:13.273008,1377508,-1628,450,-904,-1313,-62,-181,360,402,-80
818,1,2022-09-30T20:10:13.283458,1377519,-1620,451,-911,-1338,-120,-127,360,402,-80
819,1,2022-09-30T20:10:13.293023,1377529,-1620,451,-911,-1338,-120,-127,360,402,-80
820,1,2022-09-30T20:10:13.302108,1377537,-1624,453,-913,-1381,-173,-84,360,402,-80
821,1,2022-09-30T20:10:13.311854,1377548,-1624,453,-913,-1381,-173,-84,360,402,-80
822,1,2022-09-30T20:10:13.318020,1377554,-1624,453,-913,-1381,-173,-84,360,402,-80
823,1,2022-09-30T20:10:13.326314,1377560,-1634,457,-909,-1431,-207,-69,360,402,-80
824,1,2022-09-30T20:10:13.337348,1377573,-1634,457,-909,-1431,-207,-69,360,402,-80
825,1,2022-09-30T20:10:13.345131,1377581,-1629,461,-909,-1511,-304,-46,357,403,-87
826,1,2022-09-30T20:10:13.357050,1377593,-1629,461,-909,-1511,-304,-46,357,403,-87
827,1,2022-09-30T20:10:13.369530,1377605,-1623,459,-912,-1574,-386,-30,357,403,-87
828,1,2022-09-30T20:10:13.379810,1377615,-1623,459,-912,-1574,-386,-30,357,403,-87
829,1,2022-09-30T20:10:13.387555,1377624,-1623,456,-903,-1616,-447,-49,357,403,-87
830,1,2022-09-30T20:10:13.393522,1377630,-1623,456,-903,-1616,-447,-49,357,403,-87
831,1,2022-09-30T20:10:13.408285,1377644,-1627,453,-901,-1628,-472,-96,357,403,-87
832,1,2022-09-30T20:10:13.417521,1377653,-1627,453,-901,-1628,-472,-96,357,403,-87
833,1,2022-09-30T20:10:13.427641,1377664,-1620,449,-896,-1630,-472,-111,357,403,-87
834,1,2022-09-30T20:10:13.436624,1377673,-1620,449,-896,-1630,-472,-111,357,403,-87
835,1,2022-09-30T20:10:13.444055,1377680,-1620,446,-897,-1624,-433,-83,357,403,-87
836,1,2022-09-30T20:10:13.452172,1377688,-1620,446,-897,-1624,-433,-83,357,403,-87
837,1,2022-09-30T20:10:13.457948,1377694,-1620,446,-897,-1624,-433,-83,357,403,-87
838,1,2022-09-30T20:10:13.465890,1377701,-1615,446,-894,-1594,-384,-51,361,389,-93
839,1,2022-09-30T20:10:13.475529,1377710,-1615,446,-894,-1594,-384,-51,361,389,-93
840,1,2022-09-30T20:10:13.486142,1377722,-1615,440,-897,-1549,-322,-28,361,389,-93
841,1,2022-09-30T20:10:13.492024,1377728,-1615,440,-897,-1549,-322,-28,361,389,-93
842,1,2022-09-30T20:10:13.498441,1377734,-1615,440,-897,-1549,-322,-28,361,389,-93
843,1,2022-09-30T20:10:13.509868,1377746,-1620,442,-896,-1481,-279,-10,361,389,-93
844,1,2022-09-30T20:10:13.519986,1377756,-1618,448,-894,-1434,-260,-4,361,389,-93
845,1,2022-09-30T20:10:13.535033,1377771,-1618,448,-894,-1434,-260,-4,361,389,-93
846,1,2022-09-30T20:10:13.543097,1377779,-1617,455,-897,-1417,-267,20,361,389,-93
847,1,2022-09-30T20:10:13.552911,1377786,-1617,455,-897,-1417,-267,20,361,389,-93
848,1,2022-09-30T20:10:13.561583,1377798,-1620,463,-905,-1436,-278,18,361,389,-93
849,1,2022-09-30T20:10:13.570384,1377806,-1620,463,-905,-1436,-278,18,361,389,-93
850,1,2022-09-30T20:10:13.577713,1377813,-1620,463,-905,-1436,-278,18,361,389,-93
851,1,2022-09-30T20:10:13.587896,1377823,-1621,462,-908,-1452,-272,-1,361,389,-93
852,1,2022-09-30T20:10:13.595593,1377831,-1621,462,-908,-1452,-272,-1,361,389,-93
853,1,2022-09-30T20:10:13.607083,1377842,-1615,465,-906,-1476,-277,-32,361,389,-93
854,1,2022-09-30T20:10:13.617493,1377854,-1615,465,-906,-1476,-277,-32,361,389,-93
855,1,2022-09-30T20:10:13.626480,1377861,-1620,470,-904,-1481,-324,-52,361,389,-93
856,1,2022-09-30T20:10:13.635593,1377871,-1620,470,-904,-1481,-324,-52,361,389,-93
857,1,2022-09-30T20:10:13.647207,1377883,-1623,475,-904,-1493,-378,-93,361,389,-93
858,1,2022-09-30T20:10:13.655160,1377891,-1623,475,-904,-1493,-378,-93,361,389,-93
859,1,2022-09-30T20:10:13.664457,1377900,-1619,470,-903,-1515,-390,-107,361,389,-93
860,1,2022-09-30T20:10:13.678274,1377910,-1619,470,-903,-1515,-390,-107,361,389,-93
861,1,2022-09-30T20:10:13.690481,1377927,-1611,452,-901,-1513,-327,-138,361,389,-93
862,1,2022-09-30T20:10:13.700978,1377934,-1611,452,-901,-1513,-327,-138,361,389,-93
863,1,2022-09-30T20:10:13.710757,1377947,-1613,438,-909,-1418,-224,-212,361,389,-93
864,1,2022-09-30T20:10:13.716139,1377952,-1613,438,-909,-1418,-224,-212,361,389,-93
865,1,2022-09-30T20:10:13.724843,1377959,-1608,434,-912,-1301,-153,-274,359,393,-87
866,1,2022-09-30T20:10:13.733724,1377970,-1608,434,-912,-1301,-153,-274,359,393,-87
867,1,2022-09-30T20:10:13.742731,1377979,-1618,432,-915,-1179,-81,-303,359,393,-87
868,1,2022-09-30T20:10:13.750457,1377986,-1618,432,-915,-1179,-81,-303,359,393,-87
869,1,2022-09-30T20:10:13.756998,1377993,-1618,432,-915,-1179,-81,-303,359,393,-87
870,1,2022-09-30T20:10:13.765751,1378001,-1623,434,-923,-1118,-67,-281,359,393,-87
871,1,2022-09-30T20:10:13.772390,1378008,-1623,434,-923,-1118,-67,-281,359,393,-87
872,1,2022-09-30T20:10:13.780416,1378016,-1623,434,-923,-1118,-67,-281,359,393,-87
873,1,2022-09-30T20:10:13.788950,1378025,-1618,438,-924,-1109,-95,-219,359,393,-87
874,1,2022-09-30T20:10:13.796960,1378032,-1618,438,-924,-1109,-95,-219,359,393,-87
875,1,2022-09-30T20:10:13.810832,1378046,-1623,438,-929,-1096,-92,-160,359,393,-87
876,1,2022-09-30T20:10:13.819098,1378056,-1623,438,-929,-1096,-92,-160,359,393,-87
877,1,2022-09-30T20:10:13.826567,1378062,-1627,431,-935,-1075,-107,-109,359,393,-87
878,1,2022-09-30T20:10:13.834963,1378071,-1627,431,-935,-1075,-107,-109,359,393,-87
879,1,2022-09-30T20:10:13.840578,1378076,-1629,438,-935,-1030,-151,-43,357,395,-85
880,1,2022-09-30T20:10:13.848159,1378084,-1629,438,-935,-1030,-151,-43,357,395,-85
881,1,2022-09-30T20:10:13.855559,1378092,-1629,438,-935,-1030,-151,-43,357,395,-85
882,1,2022-09-30T20:10:13.862846,1378099,-1631,451,-932,-1005,-266,17,357,395,-85
883,1,2022-09-30T20:10:13.868700,1378105,-1631,451,-932,-1005,-266,17,357,395,-85
884,1,2022-09-30T20:10:13.874686,1378110,-1631,451,-932,-1005,-266,17,357,395,-85
885,1,2022-09-30T20:10:13.882351,1378118,-1615,459,-933,-1055,-411,97,357,395,-85
886,1,2022-09-30T20:10:13.889033,1378125,-1615,459,-933,-1055,-411,97,357,395,-85
887,1,2022-09-30T20:10:13.894723,1378131,-1615,459,-933,-1055,-411,97,357,395,-85
888,1,2022-09-30T20:10:13.903002,1378139,-1615,459,-932,-1102,-457,96,357,395,-85
889,1,2022-09-30T20:10:13.910839,1378147,-1615,459,-932,-1102,-457,96,357,395,-85
890,1,2022-09-30T20:10:13.916891,1378153,-1615,459,-932,-1102,-457,96,357,395,-85
891,1,2022-09-30T20:10:13.924400,1378160,-1626,455,-929,-1102,-437,48,357,395,-85
892,1,2022-09-30T20:10:13.931872,1378168,-1626,455,-929,-1102,-437,48,357,395,-85
893,1,2022-09-30T20:10:13.937824,1378173,-1626,455,-929,-1102,-437,48,357,395,-85
894,1,2022-09-30T20:10:13.943390,1378180,-1628,448,-926,-1063,-481,3,357,395,-85
895,1,2022-09-30T20:10:13.950601,1378187,-1628,448,-926,-1063,-481,3,357,395,-85
896,1,2022-09-30T20:10:13.956864,1378193,-1628,448,-926,-1063,-481,3,357,395,-85
897,1,2022-09-30T20:10:13.963645,1378200,-1619,446,-920,-989,-556,-26,353,397,-83
898,1,2022-09-30T20:10:13.970610,1378207,-1619,446,-920,-989,-556,-26,353,397,-83
899,1,2022-09-30T20:10:13.976599,1378212,-1619,446,-920,-989,-556,-26,353,397,-83
900,1,2022-09-30T20:10:13.983559,1378220,-1611,438,-912,-886,-569,-82,353,397,-83
901,1,2022-09-30T20:10:13.989384,1378226,-1611,438,-912,-886,-569,-82,353,397,-83
902,1,2022-09-30T20:10:13.995311,1378232,-1611,438,-912,-886,-569,-82,353,397,-83
903,1,2022-09-30T20:10:14.003490,1378239,-1618,442,-910,-791,-543,-149,353,397,-83
904,1,2022-09-30T20:10:14.010467,1378247,-1618,442,-910,-791,-543,-149,353,397,-83
905,1,2022-09-30T20:10:14.016210,1378252,-1618,442,-910,-791,-543,-149,353,397,-83
906,1,2022-09-30T20:10:14.023349,1378259,-1617,437,-910,-726,-508,-162,353,397,-83
907,1,2022-09-30T20:10:14.030820,1378268,-1617,437,-910,-726,-508,-162,353,397,-83
908,1,2022-09-30T20:10:14.036433,1378273,-1617,437,-910,-726,-508,-162,353,397,-83
909,1,2022-09-30T20:10:14.043477,1378280,-1619,423,-905,-643,-467,-151,353,397,-83
910,1,2022-09-30T20:10:14.050445,1378286,-1619,423,-905,-643,-467,-151,353,397,-83
911,1,2022-09-30T20:10:14.056080,1378292,-1619,423,-905,-643,-467,-151,353,397,-83
912,1,2022-09-30T20:10:14.062716,1378299,-1614,419,-906,-524,-441,-117,353,397,-83
913,1,2022-09-30T20:10:14.069506,1378306,-1614,419,-906,-524,-441,-117,353,397,-83
914,1,2022-09-30T20:10:14.075112,1378312,-1614,419,-906,-524,-441,-117,353,397,-83
915,1,2022-09-30T20:10:14.081851,1378318,-1619,419,-903,-414,-408,-101,353,399,-79
916,1,2022-09-30T20:10:14.088643,1378325,-1619,419,-903,-414,-408,-101,353,399,-79
917,1,2022-09-30T20:10:14.093893,1378330,-1619,419,-903,-414,-408,-101,353,399,-79
918,1,2022-09-30T20:10:14.100858,1378337,-1624,419,-898,-313,-397,-48,353,399,-79
919,1,2022-09-30T20:10:14.106161,1378342,-1624,419,-898,-313,-397,-48,353,399,-79
920,1,2022-09-30T20:10:14.111039,1378348,-1624,419,-898,-313,-397,-48,353,399,-79
921,1,2022-09-30T20:10:14.116282,1378353,-1624,419,-898,-313,-397,-48,353,399,-79
922,1,2022-09-30T20:10:14.122692,1378359,-1623,422,-892,-227,-391,16,353,399,-79
923,1,2022-09-30T20:10:14.129223,1378366,-1623,422,-892,-227,-391,16,353,399,-79
924,1,2022-09-30T20:10:14.134038,1378371,-1623,422,-892,-227,-391,16,353,399,-79
925,1,2022-09-30T20:10:14.140166,1378377,-1615,421,-891,-146,-371,87,353,399,-79
926,1,2022-09-30T20:10:14.146260,1378383,-1615,421,-891,-146,-371,87,353,399,-79
927,1,2022-09-30T20:10:14.151938,1378388,-1615,421,-891,-146,-371,87,353,399,-79
928,1,2022-09-30T20:10:14.157421,1378394,-1615,421,-891,-146,-371,87,353,399,-79
929,1,2022-09-30T20:10:14.163489,1378400,-1615,420,-894,-30,-342,126,353,399,-79
930,1,2022-09-30T20:10:14.169840,1378406,-1615,420,-894,-30,-342,126,353,399,-79
931,1,2022-09-30T20:10:14.175623,1378412,-1615,420,-894,-30,-342,126,353,399,-79
932,1,2022-09-30T20:10:14.180556,1378417,-1624,428,-896,85,-317,151,353,399,-79
933,1,2022-09-30T20:10:14.186537,1378423,-1624,428,-896,85,-317,151,353,399,-79
934,1,2022-09-30T20:10:14.191757,1378428,-1624,428,-896,85,-317,151,353,399,-79
935,1,2022-09-30T20:10:14.198998,1378435,-1624,428,-896,85,-317,151,353,399,-79
936,1,2022-09-30T20:10:14.206247,1378443,-1623,430,-892,190,-314,199,353,399,-79
937,1,2022-09-30T20:10:14.213073,1378450,-1623,430,-892,190,-314,199,353,399,-79
938,1,2022-09-30T20:10:14.218771,1378455,-1623,430,-892,190,-314,199,353,399,-79
939,1,2022-09-30T20:10:14.226364,1378462,-1618,428,-883,264,-322,234,354,398,-78
940,1,2022-09-30T20:10:14.233207,1378469,-1618,428,-883,264,-322,234,354,398,-78
941,1,2022-09-30T20:10:14.242489,1378478,-1616,427,-886,355,-306,217,354,398,-78
942,1,2022-09-30T20:10:14.251470,1378487,-1616,427,-886,355,-306,217,354,398,-78
943,1,2022-09-30T20:10:14.259032,1378495,-1616,427,-886,355,-306,217,354,398,-78
944,1,2022-09-30T20:10:14.265373,1378502,-1622,429,-891,457,-269,172,354,398,-78
945,1,2022-09-30T20:10:14.271668,1378508,-1622,429,-891,457,-269,172,354,398,-78
946,1,2022-09-30T20:10:14.281297,1378518,-1619,422,-888,577,-232,169,354,398,-78
947,1,2022-09-30T20:10:14.288894,1378526,-1619,422,-888,577,-232,169,354,398,-78
948,1,2022-09-30T20:10:14.294420,1378531,-1619,422,-888,577,-232,169,354,398,-78
949,1,2022-09-30T20:10:14.301336,1378536,-1614,416,-886,712,-182,183,354,398,-78
950,1,2022-09-30T20:10:14.310487,1378546,-1614,416,-886,712,-182,183,354,398,-78
951,1,2022-09-30T20:10:14.319131,1378554,-1614,416,-886,712,-182,183,354,398,-78
952,1,2022-09-30T20:10:14.332922,1378569,-1615,414,-887,870,-133,217,354,398,-78
953,1,2022-09-30T20:10:14.341246,1378578,-1615,411,-886,1058,-47,216,362,398,-84
954,1,2022-09-30T20:10:14.352045,1378587,-1615,411,-886,1058,-47,216,362,398,-84
955,1,2022-09-30T20:10:14.361870,1378598,-1616,413,-892,1233,19,249,362,398,-84
956,1,2022-09-30T20:10:14.371082,1378608,-1616,413,-892,1233,19,249,362,398,-84
957,1,2022-09-30T20:10:14.380647,1378617,-1616,413,-892,1382,72,296,362,398,-84
958,1,2022-09-30T20:10:14.388225,1378624,-1616,413,-892,1382,72,296,362,398,-84
959,1,2022-09-30T20:10:14.393876,1378630,-1616,413,-892,1382,72,296,362,398,-84
960,1,2022-09-30T20:10:14.406919,1378639,-1623,416,-896,1534,100,341,362,398,-84
961,1,2022-09-30T20:10:14.415661,1378652,-1623,416,-896,1534,100,341,362,398,-84
962,1,2022-09-30T20:10:14.424092,1378660,-1622,423,-898,1653,93,384,362,398,-84
963,1,2022-09-30T20:10:14.430480,1378666,-1622,423,-898,1653,93,384,362,398,-84
964,1,2022-09-30T20:10:14.436786,1378673,-1622,423,-898,1653,93,384,362,398,-84
965,1,2022-09-30T20:10:14.444240,1378680,-1617,418,-903,1764,137,443,362,398,-84
966,1,2022-09-30T20:10:14.451656,1378688,-1617,418,-903,1764,137,443,362,398,-84
967,1,2022-09-30T20:10:14.461636,1378698,-1619,411,-904,1911,235,478,355,395,-71
968,1,2022-09-30T20:10:14.471484,1378708,-1619,411,-904,1911,235,478,355,395,-71
969,1,2022-09-30T20:10:14.481162,1378717,-1622,407,-915,2101,271,480,355,395,-71
970,1,2022-09-30T20:10:14.493413,1378729,-1622,407,-915,2101,271,480,355,395,-71
971,1,2022-09-30T20:10:14.501453,1378738,-1620,413,-918,2283,231,459,355,395,-71
972,1,2022-09-30T20:10:14.508981,1378746,-1620,413,-918,2283,231,459,355,395,-71
973,1,2022-09-30T20:10:14.514251,1378751,-1620,413,-918,2283,231,459,355,395,-71
974,1,2022-09-30T20:10:14.520699,1378757,-1621,416,-912,2435,182,469,355,395,-71
975,1,2022-09-30T20:10:14.528221,1378764,-1621,416,-912,2435,182,469,355,395,-71
976,1,2022-09-30T20:10:14.535517,1378772,-1621,416,-912,2435,182,469,355,395,-71
977,1,2022-09-30T20:10:14.541551,1378777,-1624,421,-913,2548,160,523,355,395,-71
978,1,2022-09-30T20:10:14.549380,1378786,-1624,421,-913,2548,160,523,355,395,-71
979,1,2022-09-30T20:10:14.555395,1378791,-1624,421,-913,2548,160,523,355,395,-71
980,1,2022-09-30T20:10:14.564003,1378800,-1626,424,-906,2600,120,592,355,395,-71
981,1,2022-09-30T20:10:14.572048,1378807,-1626,424,-906,2600,120,592,355,395,-71
982,1,2022-09-30T20:10:14.581242,1378818,-1622,421,-904,2659,61,642,351,401,-57
983,1,2022-09-30T20:10:14.589914,1378827,-1622,421,-904,2659,61,642,351,401,-57
984,1,2022-09-30T20:10:14.595203,1378832,-1622,421,-904,2659,61,642,351,401,-57
985,1,2022-09-30T20:10:14.605389,1378841,-1619,420,-902,2745,36,656,351,401,-57
986,1,2022-09-30T20:10:14.612273,1378848,-1619,420,-902,2745,36,656,351,401,-57
987,1,2022-09-30T20:10:14.617605,1378854,-1619,420,-902,2745,36,656,351,401,-57
988,1,2022-09-30T20:10:14.628034,1378864,-1612,415,-892,2847,51,688,351,401,-57
989,1,2022-09-30T20:10:14.637902,1378874,-1612,415,-892,2847,51,688,351,401,-57
990,1,2022-09-30T20:10:14.645205,1378881,-1615,418,-892,2987,80,715,351,401,-57
991,1,2022-09-30T20:10:14.653671,1378889,-1615,418,-892,2987,80,715,351,401,-57
992,1,2022-09-30T20:10:14.662821,1378899,-1610,424,-883,3125,85,721,351,401,-57
993,1,2022-09-30T20:10:14.671193,1378908,-1610,424,-883,3125,85,721,351,401,-57
994,1,2022-09-30T20:10:14.678681,1378914,-1610,424,-883,3125,85,721,351,401,-57
995,1,2022-09-30T20:10:14.686529,1378923,-1609,414,-886,3278,152,709,351,401,-57
996,1,2022-09-30T20:10:14.693091,1378929,-1609,414,-886,3278,152,709,351,401,-57
997,1,2022-09-30T20:10:14.699837,1378935,-1609,414,-886,3278,152,709,351,401,-57
998,1,2022-09-30T20:10:14.710197,1378946,-1609,409,-891,3448,238,676,351,401,-57
999,1,2022-09-30T20:10:14.715532,1378952,-1609,409,-891,3448,238,676,351,401,-57
1000,1,2022-09-30T20:10:14.722996,1378959,-1614,408,-886,3646,320,641,351,411,-59
1001,1,2022-09-30T20:10:14.733702,1378970,-1614,408,-886,3646,320,641,351,411,-59
1002,1,2022-09-30T20:10:14.739305,1378975,-1614,408,-886,3646,320,641,351,411,-59
1003,1,2022-09-30T20:10:14.745328,1378982,-1612,401,-891,3832,375,611,351,411,-59
1004,1,2022-09-30T20:10:14.754036,1378989,-1612,401,-891,3832,375,611,351,411,-59
1005,1,2022-09-30T20:10:14.762189,1378999,-1611,397,-895,4000,419,588,351,411,-59
1006,1,2022-09-30T20:10:14.770047,1379007,-1611,397,-895,4000,419,588,351,411,-59
1007,1,2022-09-30T20:10:14.776483,1379012,-1611,397,-895,4000,419,588,351,411,-59
1008,1,2022-09-30T20:10:14.786319,1379022,-1611,397,-895,4000,419,588,351,411,-59
1009,1,2022-09-30T20:10:14.791889,1379028,-1611,397,-895,4000,419,588,351,411,-59
1010,1,2022-09-30T20:10:14.798379,1379034,-1611,397,-895,4000,419,588,351,411,-59
1011,1,2022-09-30T20:10:14.808995,1379045,-1609,392,-898,4282,505,605,351,411,-59
1012,1,2022-09-30T20:10:14.815793,1379052,-1609,392,-898,4282,505,605,351,411,-59
1013,1,2022-09-30T20:10:14.822597,1379058,-1616,385,-893,4375,543,660,351,411,-59
1014,1,2022-09-30T20:10:14.834209,1379068,-1616,385,-893,4375,543,660,351,411,-59
1015,1,2022-09-30T20:10:14.839065,1379076,-1616,385,-893,4375,543,660,351,411,-59
1016,1,2022-09-30T20:10:14.845311,1379082,-1616,384,-897,4467,555,733,339,405,-45
1017,1,2022-09-30T20:10:14.853758,1379087,-1616,384,-897,4467,555,733,339,405,-45
1018,1,2022-09-30T20:10:14.862978,1379099,-1617,381,-897,4560,560,815,339,405,-45
1019,1,2022-09-30T20:10:14.868994,1379105,-1617,381,-897,4560,560,815,339,405,-45
1020,1,2022-09-30T20:10:14.875336,1379110,-1617,381,-897,4560,560,815,339,405,-45
1021,1,2022-09-30T20:10:14.882051,1379118,-1614,381,-895,4618,560,918,339,405,-45
1022,1,2022-09-30T20:10:14.888678,1379125,-1614,381,-895,4618,560,918,339,405,-45
1023,1,2022-09-30T20:10:14.894080,1379131,-1614,381,-895,4618,560,918,339,405,-45
1024,1,2022-09-30T20:10:14.901377,1379136,-1614,381,-895,4618,560,918,339,405,-45
1025,1,2022-09-30T20:10:14.910678,1379147,-1609,382,-898,4680,574,1006,339,405,-45
1026,1,2022-09-30T20:10:14.917466,1379154,-1609,382,-898,4680,574,1006,339,405,-45
1027,1,2022-09-30T20:10:14.925165,1379161,-1615,383,-905,4758,599,1079,339,405,-45
1028,1,2022-09-30T20:10:14.930708,1379167,-1615,383,-905,4758,599,1079,339,405,-45
1029,1,2022-09-30T20:10:14.936596,1379173,-1615,383,-905,4758,599,1079,339,405,-45
1030,1,2022-09-30T20:10:14.943203,1379180,-1614,384,-905,4862,607,1131,339,405,-45
1031,1,2022-09-30T20:10:14.951669,1379187,-1614,384,-905,4862,607,1131,339,405,-45
1032,1,2022-09-30T20:10:14.960316,1379196,-1613,386,-908,4966,617,1189,339,405,-45
1033,1,2022-09-30T20:10:14.968556,1379205,-1613,386,-908,4966,617,1189,333,407,-35
1034,1,2022-09-30T20:10:14.974915,1379211,-1613,386,-908,4966,617,1189,333,407,-35
1035,1,2022-09-30T20:10:14.983938,1379220,-1618,392,-908,5108,603,1265,333,407,-35
1036,1,2022-09-30T20:10:14.992144,1379229,-1618,392,-908,5108,603,1265,333,407,-35
1037,1,2022-09-30T20:10:15.000151,1379235,-1618,392,-908,5108,603,1265,333,407,-35
1038,1,2022-09-30T20:10:15.009917,1379247,-1621,405,-899,5204,634,1315,333,407,-35
1039,1,2022-09-30T20:10:15.015564,1379252,-1621,405,-899,5204,634,1315,333,407,-35
1040,1,2022-09-30T20:10:15.022863,1379259,-1613,414,-906,5248,631,1403,333,407,-35
1041,1,2022-09-30T20:10:15.033234,1379269,-1613,414,-906,5248,631,1403,333,407,-35
1042,1,2022-09-30T20:10:15.040056,1379276,-1613,414,-906,5248,631,1403,333,407,-35
1043,1,2022-09-30T20:10:15.048342,1379284,-1608,420,-910,5265,669,1486,333,407,-35
1044,1,2022-09-30T20:10:15.057268,1379294,-1608,420,-910,5265,669,1486,333,407,-35
1045,1,2022-09-30T20:10:15.067421,1379304,-1610,421,-913,5305,713,1520,333,407,-35
1046,1,2022-09-30T20:10:15.075279,1379310,-1610,421,-913,5305,713,1520,333,407,-35
1047,1,2022-09-30T20:10:15.086468,1379322,-1610,421,-913,5305,713,1520,324,408,-18
1048,1,2022-09-30T20:10:15.091938,1379329,-1610,421,-913,5305,713,1520,324,408,-18
1049,1,2022-09-30T20:10:15.097901,1379334,-1610,421,-913,5305,713,1520,324,408,-18
1050,1,2022-09-30T20:10:15.108975,1379345,-1619,436,-917,5478,767,1548,324,408,-18
1051,1,2022-09-30T20:10:15.116821,1379353,-1619,436,-917,5478,767,1548,324,408,-18
1052,1,2022-09-30T20:10:15.123988,1379360,-1615,441,-921,5567,761,1577,324,408,-18
1053,1,2022-09-30T20:10:15.132945,1379369,-1615,441,-921,5567,761,1577,324,408,-18
1054,1,2022-09-30T20:10:15.138614,1379375,-1615,441,-921,5567,761,1577,324,408,-18
1055,1,2022-09-30T20:10:15.147816,1379384,-1615,448,-929,5653,778,1594,324,408,-18
1056,1,2022-09-30T20:10:15.155361,1379391,-1615,448,-929,5653,778,1594,324,408,-18
1057,1,2022-09-30T20:10:15.164335,1379401,-1617,454,-936,5732,811,1574,324,408,-18
1058,1,2022-09-30T20:10:15.169573,1379406,-1617,454,-936,5732,811,1574,324,408,-18
1059,1,2022-09-30T20:10:15.176570,1379411,-1617,454,-936,5732,811,1574,324,408,-18
1060,1,2022-09-30T20:10:15.188367,1379425,-1619,464,-935,5806,828,1540,324,408,-18
1061,1,2022-09-30T20:10:15.194754,1379431,-1619,464,-935,5806,828,1540,324,408,-18
1062,1,2022-09-30T20:10:15.206134,1379441,-1619,472,-933,5843,805,1536,324,408,-18
1063,1,2022-09-30T20:10:15.212997,1379449,-1619,472,-933,5843,805,1536,324,408,-18
1064,1,2022-09-30T20:10:15.221127,1379456,-1619,472,-933,5843,805,1536,324,408,-18
1065,1,2022-09-30T20:10:15.230977,1379468,-1631,480,-928,5851,754,1562,309,411,-19
1066,1,2022-09-30T20:10:15.239068,1379475,-1631,480,-928,5851,754,1562,309,411,-19
1067,1,2022-09-30T20:10:15.247178,1379483,-1623,479,-934,5843,664,1603,309,411,-19
1068,1,2022-09-30T20:10:15.257827,1379494,-1623,479,-934,5843,664,1603,309,411,-19
1069,1,2022-09-30T20:10:15.265893,1379501,-1617,474,-934,5868,668,1599,309,411,-19
1070,1,2022-09-30T20:10:15.275653,1379512,-1617,474,-934,5868,668,1599,309,411,-19
1071,1,2022-09-30T20:10:15.282633,1379519,-1622,471,-943,5939,727,1558,309,411,-19
1072,1,2022-09-30T20:10:15.290959,1379527,-1622,471,-943,5939,727,1558,309,411,-19
1073,1,2022-09-30T20:10:15.298699,1379534,-1622,471,-943,5939,727,1558,309,411,-19
1074,1,2022-09-30T20:10:15.312962,1379550,-1628,475,-938,6017,722,1514,309,411,-19
1075,1,2022-09-30T20:10:15.324563,1379560,-1624,478,-936,6073,633,1471,309,411,-19
1076,1,2022-09-30T20:10:15.333395,1379569,-1624,478,-936,6073,633,1471,309,411,-19
1077,1,2022-09-30T20:10:15.340442,1379575,-1624,478,-936,6073,633,1471,309,411,-19
1078,1,2022-09-30T20:10:15.349035,1379586,-1621,481,-935,6103,565,1412,301,417,-5
1079,1,2022-09-30T20:10:15.356463,1379593,-1621,481,-935,6103,565,1412,301,417,-5
1080,1,2022-09-30T20:10:15.366396,1379600,-1629,485,-933,6104,545,1362,301,417,-5
1081,1,2022-09-30T20:10:15.374412,1379610,-1629,485,-933,6104,545,1362,301,417,-5
1082,1,2022-09-30T20:10:15.380509,1379617,-1628,481,-926,6061,497,1369,301,417,-5
1083,1,2022-09-30T20:10:15.390782,1379628,-1628,481,-926,6061,497,1369,301,417,-5
1084,1,2022-09-30T20:10:15.396390,1379633,-1628,481,-926,6061,497,1369,301,417,-5
1085,1,2022-09-30T20:10:15.406334,1379642,-1625,478,-926,6016,412,1410,301,417,-5
1086,1,2022-09-30T20:10:15.414762,1379651,-1625,478,-926,6016,412,1410,301,417,-5
1087,1,2022-09-30T20:10:15.420626,1379657,-1625,478,-926,6016,412,1410,301,417,-5
1088,1,2022-09-30T20:10:15.432638,1379668,-1622,475,-921,6041,418,1403,301,417,-5
1089,1,2022-09-30T20:10:15.441350,1379678,-1616,479,-913,6086,445,1425,301,417,-5
1090,1,2022-09-30T20:10:15.450410,1379686,-1616,479,-913,6086,445,1425,301,417,-5
1091,1,2022-09-30T20:10:15.456957,1379693,-1616,479,-913,6086,445,1425,301,417,-5
1092,1,2022-09-30T20:10:15.467685,1379704,-1623,481,-911,6139,469,1427,282,410,4
1093,1,2022-09-30T20:10:15.474358,1379709,-1623,481,-911,6139,469,1427,282,410,4
1094,1,2022-09-30T20:10:15.483676,1379720,-1615,486,-908,6168,447,1437,282,410,4
1095,1,2022-09-30T20:10:15.492883,1379729,-1615,486,-908,6168,447,1437,282,410,4
1096,1,2022-09-30T20:10:15.501070,1379735,-1615,486,-908,6168,447,1437,282,410,4
1097,1,2022-09-30T20:10:15.511188,1379747,-1615,486,-908,6168,447,1437,282,410,4
1098,1,2022-09-30T20:10:15.518679,1379756,-1615,486,-908,6168,447,1437,282,410,4
1099,1,2022-09-30T20:10:15.526723,1379763,-1617,477,-917,6299,544,1384,282,410,4
1100,1,2022-09-30T20:10:15.536271,1379773,-1617,477,-917,6299,544,1384,282,410,4
1101,1,2022-09-30T20:10:15.543622,1379780,-1631,484,-913,6400,610,1317,282,410,4
1102,1,2022-09-30T20:10:15.554812,1379790,-1631,484,-913,6400,610,1317,282,410,4
1103,1,2022-09-30T20:10:15.563475,1379800,-1630,486,-913,6436,569,1270,282,410,4
1104,1,2022-09-30T20:10:15.572016,1379809,-1630,486,-913,6436,569,1270,282,410,4
1105,1,2022-09-30T20:10:15.582638,1379819,-1625,483,-904,6419,525,1230,270,416,12
1106,1,2022-09-30T20:10:15.592612,1379828,-1625,483,-904,6419,525,1230,270,416,12
1107,1,2022-09-30T20:10:15.601126,1379834,-1625,483,-904,6419,525,1230,270,416,12
1108,1,2022-09-30T20:10:15.610820,1379848,-1624,478,-901,6387,528,1168,270,416,12
1109,1,2022-09-30T20:10:15.617879,1379854,-1624,478,-901,6387,528,1168,270,416,12
1110,1,2022-09-30T20:10:15.629049,1379865,-1635,472,-897,6375,527,1140,270,416,12
1111,1,2022-09-30T20:10:15.636078,1379872,-1635,472,-897,6375,527,1140,270,416,12
1112,1,2022-09-30T20:10:15.653781,1379886,-1639,470,-892,6352,488,1168,270,416,12
1113,1,2022-09-30T20:10:15.662962,1379899,-1630,469,-888,6312,424,1257,270,416,12
1114,1,2022-09-30T20:10:15.676857,1379910,-1630,469,-888,6312,424,1257,270,416,12
1115,1,2022-09-30T20:10:15.684626,1379920,-1619,464,-880,6276,421,1315,270,416,12
1116,1,2022-09-30T20:10:15.694357,1379931,-1619,464,-880,6276,421,1315,270,416,12
1117,1,2022-09-30T20:10:15.705903,1379942,-1621,466,-876,6252,485,1371,270,416,12
1118,1,2022-09-30T20:10:15.717975,1379954,-1621,466,-876,6252,485,1371,270,416,12
1119,1,2022-09-30T20:10:15.726087,1379961,-1621,464,-874,6257,555,1456,246,416,18
1120,1,2022-09-30T20:10:15.736557,1379973,-1621,464,-874,6257,555,1456,246,416,18
1121,1,2022-09-30T20:10:15.749611,1379986,-1626,472,-878,6286,639,1526,246,416,18
1122,1,2022-09-30T20:10:15.756672,1379993,-1626,472,-878,6286,639,1526,246,416,18
1123,1,2022-09-30T20:10:15.765343,1380001,-1618,482,-883,6309,674,1574,246,416,18
1124,1,2022-09-30T20:10:15.772950,1380009,-1618,482,-883,6309,674,1574,246,416,18
1125,1,2022-09-30T20:10:15.778764,1380015,-1618,482,-883,6309,674,1574,246,416,18
1126,1,2022-09-30T20:10:15.786565,1380023,-1627,491,-881,6315,736,1573,246,416,18
1127,1,2022-09-30T20:10:15.795078,1380031,-1627,491,-881,6315,736,1573,246,416,18
1128,1,2022-09-30T20:10:15.804224,1380039,-1618,496,-889,6292,797,1557,246,416,18
1129,1,2022-09-30T20:10:15.813833,1380049,-1618,496,-889,6292,797,1557,246,416,18
1130,1,2022-09-30T20:10:15.820401,1380057,-1618,496,-889,6292,797,1557,246,416,18
1131,1,2022-09-30T20:10:15.830921,1380068,-1623,499,-898,6265,879,1526,246,416,18
1132,1,2022-09-30T20:10:15.836346,1380073,-1623,499,-898,6265,879,1526,246,416,18
1133,1,2022-09-30T20:10:15.843599,1380080,-1620,497,-905,6251,919,1505,231,427,9
1134,1,2022-09-30T20:10:15.851696,1380087,-1620,497,-905,6251,919,1505,231,427,9
1135,1,2022-09-30T20:10:15.860510,1380098,-1623,501,-909,6249,957,1465,231,427,9
1136,1,2022-09-30T20:10:15.869483,1380106,-1623,501,-909,6249,957,1465,231,427,9
1137,1,2022-09-30T20:10:15.875695,1380111,-1623,501,-909,6249,957,1465,231,427,9
1138,1,2022-09-30T20:10:15.886111,1380122,-1617,504,-916,6216,965,1442,231,427,9
1139,1,2022-09-30T20:10:15.895518,1380132,-1617,504,-916,6216,965,1442,231,427,9
1140,1,2022-09-30T20:10:15.907050,1380143,-1626,507,-923,6190,994,1377,231,427,9
1141,1,2022-09-30T20:10:15.915564,1380152,-1626,507,-923,6190,994,1377,231,427,9
1142,1,2022-09-30T20:10:15.921994,1380158,-1627,509,-930,6134,996,1311,231,427,9
1143,1,2022-09-30T20:10:15.935965,1380172,-1627,509,-930,6134,996,1311,231,427,9
1144,1,2022-09-30T20:10:15.943010,1380179,-1624,496,-931,6074,964,1267,231,427,9
1145,1,2022-09-30T20:10:15.952442,1380188,-1624,496,-931,6074,964,1267,231,427,9
1146,1,2022-09-30T20:10:15.959210,1380196,-1624,496,-931,6074,964,1267,231,427,9
1147,1,2022-09-30T20:10:15.969787,1380206,-1626,495,-936,6116,891,1244,211,425,1
1148,1,2022-09-30T20:10:15.977125,1380213,-1626,495,-936,6116,891,1244,211,425,1
1149,1,2022-09-30T20:10:15.987605,1380224,-1628,503,-939,6092,803,1176,211,425,1
1150,1,2022-09-30T20:10:15.994775,1380232,-1628,503,-939,6092,803,1176,211,425,1
1151,1,2022-09-30T20:10:16.001367,1380237,-1628,503,-939,6092,803,1176,211,425,1
1152,1,2022-09-30T20:10:16.009752,1380246,-1627,509,-931,5968,706,1128,211,425,1
1153,1,2022-09-30T20:10:16.016850,1380253,-1627,509,-931,5968,706,1128,211,425,1
1154,1,2022-09-30T20:10:16.026933,1380262,-1628,516,-931,5770,609,1095,211,425,1
1155,1,2022-09-30T20:10:16.033038,1380269,-1628,516,-931,5770,609,1095,211,425,1
1156,1,2022-09-30T20:10:16.039297,1380276,-1628,516,-931,5770,609,1095,211,425,1
1157,1,2022-09-30T20:10:16.049289,1380283,-1634,506,-934,5511,538,1050,211,425,1
1158,1,2022-09-30T20:10:16.061996,1380298,-1634,502,-929,5236,484,996,211,425,1
1159,1,2022-09-30T20:10:16.071494,1380307,-1634,502,-929,5236,484,996,211,425,1
1160,1,2022-09-30T20:10:16.080981,1380316,-1634,502,-929,5236,484,996,211,425,1
1161,1,2022-09-30T20:10:16.090445,1380327,-1631,499,-926,4970,381,1007,198,436,6
1162,1,2022-09-30T20:10:16.098945,1380335,-1631,499,-926,4970,381,1007,198,436,6
1163,1,2022-09-30T20:10:16.112516,1380348,-1657,493,-925,4775,343,1003,198,436,6
1164,1,2022-09-30T20:10:16.120007,1380357,-1657,493,-925,4775,343,1003,198,436,6
1165,1,2022-09-30T20:10:16.130611,1380367,-1624,489,-921,4583,214,1136,198,436,6
1166,1,2022-09-30T20:10:16.138599,1380375,-1624,489,-921,4583,214,1136,198,436,6
1167,1,2022-09-30T20:10:16.148608,1380384,-1622,481,-916,4486,223,1241,198,436,6
1168,1,2022-09-30T20:10:16.159042,1380396,-1622,481,-916,4486,223,1241,198,436,6
1169,1,2022-09-30T20:10:16.169698,1380406,-1625,492,-911,4457,262,1231,198,436,6
1170,1,2022-09-30T20:10:16.178538,1380414,-1625,492,-911,4457,262,1231,198,436,6
1171,1,2022-09-30T20:10:16.189366,1380425,-1626,503,-910,4385,259,1191,198,436,6
1172,1,2022-09-30T20:10:16.196336,1380432,-1626,503,-910,4385,259,1191,198,436,6
1173,1,2022-09-30T20:10:16.210432,1380447,-1620,509,-905,4254,242,1135,198,436,6
1174,1,2022-09-30T20:10:16.217263,1380454,-1620,509,-905,4254,242,1135,198,436,6
1175,1,2022-09-30T20:10:16.227415,1380460,-1625,515,-902,4100,244,1110,187,437,-1
1176,1,2022-09-30T20:10:16.238158,1380474,-1625,515,-902,4100,244,1110,187,437,-1
1177,1,2022-09-30T20:10:16.245808,1380483,-1632,524,-905,3915,216,1072,187,437,-1
1178,1,2022-09-30T20:10:16.258859,1380496,-1632,524,-905,3915,216,1072,187,437,-1
1179,1,2022-09-30T20:10:16.268077,1380504,-1641,523,-898,3706,144,1006,187,437,-1
1180,1,2022-09-30T20:10:16.278095,1380513,-1641,523,-898,3706,144,1006,187,437,-1
1181,1,2022-09-30T20:10:16.290332,1380527,-1637,527,-890,3451,9,925,187,437,-1
1182,1,2022-09-30T20:10:16.299803,1380536,-1637,527,-890,3451,9,925,187,437,-1
1183,1,2022-09-30T20:10:16.312415,1380549,-1632,517,-879,3216,-47,801,187,437,-1
1184,1,2022-09-30T20:10:16.329433,1380558,-1637,515,-865,2989,-89,703,187,437,-1
1185,1,2022-09-30T20:10:16.342333,1380579,-1634,514,-860,2760,-130,646,170,438,-10
1186,1,2022-09-30T20:10:16.358439,1380590,-1634,514,-860,2760,-130,646,170,438,-10
1187,1,2022-09-30T20:10:16.367751,1380604,-1626,500,-855,2510,-162,649,170,438,-10
1188,1,2022-09-30T20:10:16.378658,1380613,-1626,500,-855,2510,-162,649,170,438,-10
1189,1,2022-09-30T20:10:16.391586,1380628,-1632,490,-858,2349,-102,655,170,438,-10
1190,1,2022-09-30T20:10:16.402413,1380637,-1632,490,-858,2349,-102,655,170,438,-10
1191,1,2022-09-30T20:10:16.416391,1380653,-1632,491,-851,2217,-62,666,170,438,-10
1192,1,2022-09-30T20:10:16.430523,1380665,-1631,490,-850,2103,-27,668,170,438,-10
1193,1,2022-09-30T20:10:16.439640,1380676,-1631,490,-850,2103,-27,668,170,438,-10
1194,1,2022-09-30T20:10:16.449387,1380685,-1631,495,-847,1978,4,679,170,438,-10
1195,1,2022-09-30T20:10:16.460680,1380698,-1631,495,-847,1978,4,679,170,438,-10
1196,1,2022-09-30T20:10:16.470705,1380707,-1625,509,-848,1814,39,680,164,440,-18
1197,1,2022-09-30T20:10:16.478767,1380715,-1625,509,-848,1814,39,680,164,440,-18
1198,1,2022-09-30T20:10:16.489445,1380725,-1624,513,-850,1613,89,650,164,440,-18
1199,1,2022-09-30T20:10:16.497739,1380734,-1624,513,-850,1613,89,650,164,440,-18
1200,1,2022-09-30T20:10:16.514100,1380751,-1632,518,-852,1415,161,585,164,440,-18
1201,1,2022-09-30T20:10:16.523865,1380760,-1635,519,-854,1206,170,528,164,440,-18
1202,1,2022-09-30T20:10:16.538489,1380775,-1635,519,-854,1206,170,528,164,440,-18
1203,1,2022-09-30T20:10:16.547015,1380784,-1634,525,-860,998,162,502,164,440,-18
1204,1,2022-09-30T20:10:16.557594,1380794,-1634,525,-860,998,162,502,164,440,-18
1205,1,2022-09-30T20:10:16.568863,1380805,-1636,525,-865,787,164,476,164,440,-18
1206,1,2022-09-30T20:10:16.579514,1380815,-1636,525,-865,787,164,476,164,440,-18
1207,1,2022-09-30T20:10:16.591227,1380828,-1636,530,-862,572,164,410,156,438,-12
1208,1,2022-09-30T20:10:16.602534,1380836,-1636,530,-862,572,164,410,156,438,-12
1209,1,2022-09-30T20:10:16.619515,1380855,-1638,534,-864,320,188,331,156,438,-12
1210,1,2022-09-30T20:10:16.636308,1380873,-1636,538,-873,42,169,253,156,438,-12
1211,1,2022-09-30T20:10:16.651646,1380885,-1637,534,-872,-238,151,190,156,438,-12
1212,1,2022-09-30T20:10:16.667408,1380903,-1637,534,-872,-238,151,190,156,438,-12
1213,1,2022-09-30T20:10:16.683279,1380914,-1637,534,-872,-238,151,190,156,438,-12
1214,1,2022-09-30T20:10:16.692635,1380929,-1626,535,-879,-823,78,69,156,438,-12
1215,1,2022-09-30T20:10:16.701127,1380937,-1626,535,-879,-823,78,69,156,438,-12
1216,1,2022-09-30T20:10:16.707295,1380943,-1637,535,-889,-1105,80,-5,159,431,-25
1217,1,2022-09-30T20:10:16.716945,1380954,-1637,535,-889,-1105,80,-5,159,431,-25
1218,1,2022-09-30T20:10:16.729548,1380963,-1634,537,-891,-1387,58,-93,159,431,-25
1219,1,2022-09-30T20:10:16.739897,1380976,-1634,537,-891,-1387,58,-93,159,431,-25
1220,1,2022-09-30T20:10:16.748743,1380983,-1627,531,-891,-1672,20,-178,159,431,-25
1221,1,2022-09-30T20:10:16.760384,1380997,-1627,531,-891,-1672,20,-178,159,431,-25
1222,1,2022-09-30T20:10:16.770961,1381007,-1626,528,-895,-1953,13,-248,159,431,-25
1223,1,2022-09-30T20:10:16.785782,1381021,-1623,523,-901,-2212,25,-305,159,431,-25
1224,1,2022-09-30T20:10:16.799736,1381035,-1623,523,-901,-2212,25,-305,159,431,-25
1225,1,2022-09-30T20:10:16.806500,1381043,-1624,518,-907,-2432,43,-361,159,431,-25
1226,1,2022-09-30T20:10:16.815001,1381051,-1624,518,-907,-2432,43,-361,159,431,-25
1227,1,2022-09-30T20:10:16.821212,1381058,-1616,516,-914,-2629,37,-420,159,431,-25
1228,1,2022-09-30T20:10:16.838796,1381075,-1616,516,-914,-2629,37,-420,159,431,-25
1229,1,2022-09-30T20:10:16.849377,1381085,-1613,513,-920,-2799,66,-468,158,440,-22
1230,1,2022-09-30T20:10:16.861623,1381098,-1614,512,-934,-2966,101,-516,158,440,-22
1231,1,2022-09-30T20:10:16.869859,1381106,-1614,512,-934,-2966,101,-516,158,440,-22
1232,1,2022-09-30T20:10:16.881223,1381112,-1614,512,-934,-2966,101,-516,158,440,-22
1233,1,2022-09-30T20:10:16.890145,1381127,-1610,512,-942,-3139,124,-549,158,440,-22
1234,1,2022-09-30T20:10:16.901911,1381137,-1610,512,-942,-3139,124,-549,158,440,-22
1235,1,2022-09-30T20:10:16.915674,1381152,-1610,509,-956,-3316,174,-620,158,440,-22
1236,1,2022-09-30T20:10:16.926403,1381163,-1615,513,-971,-3495,228,-694,158,440,-22
1237,1,2022-09-30T20:10:16.936752,1381173,-1615,513,-971,-3495,228,-694,158,440,-22
1238,1,2022-09-30T20:10:16.945218,1381182,-1618,511,-978,-3693,272,-760,158,440,-22
1239,1,2022-09-30T20:10:16.959482,1381195,-1618,511,-978,-3693,272,-760,158,440,-22
1240,1,2022-09-30T20:10:16.970053,1381207,-1620,511,-988,-3910,202,-765,154,432,-26
1241,1,2022-09-30T20:10:16.982843,1381220,-1630,513,-1001,-4126,96,-776,154,432,-26
1242,1,2022-09-30T20:10:16.997969,1381234,-1630,513,-1001,-4126,96,-776,154,432,-26
1243,1,2022-09-30T20:10:17.011985,1381249,-1626,524,-1015,-4399,-29,-772,154,432,-26
1244,1,2022-09-30T20:10:17.021371,1381257,-1626,524,-1015,-4399,-29,-772,154,432,-26
1245,1,2022-09-30T20:10:17.035883,1381271,-1621,517,-1023,-4690,-124,-771,154,432,-26
1246,1,2022-09-30T20:10:17.045856,1381281,-1630,517,-1024,-4963,-245,-815,154,432,-26
1247,1,2022-09-30T20:10:17.058022,1381295,-1630,517,-1024,-4963,-245,-815,154,432,-26
1248,1,2022-09-30T20:10:17.068198,1381304,-1632,519,-1029,-5233,-434,-895,154,432,-26
1249,1,2022-09-30T20:10:17.077072,1381311,-1632,519,-1029,-5233,-434,-895,154,432,-26
1250,1,2022-09-30T20:10:17.087586,1381324,-1634,522,-1022,-5505,-674,-943,164,434,-20
1251,1,2022-09-30T20:10:17.097716,1381335,-1634,522,-1022,-5505,-674,-943,164,434,-20
1252,1,2022-09-30T20:10:17.118187,1381354,-1637,530,-1019,-5829,-938,-958,164,434,-20
1253,1,2022-09-30T20:10:17.134543,1381371,-1629,536,-1010,-6212,-1210,-971,164,434,-20
1254,1,2022-09-30T20:10:17.147010,1381383,-1632,535,-1000,-6601,-1437,-1019,164,434,-20
1255,1,2022-09-30T20:10:17.161245,1381397,-1632,535,-1000,-6601,-1437,-1019,164,434,-20
1256,1,2022-09-30T20:10:17.171381,1381408,-1631,537,-989,-6979,-1652,-1079,164,434,-20
1257,1,2022-09-30T20:10:17.179985,1381416,-1631,537,-989,-6979,-1652,-1079,164,434,-20
1258,1,2022-09-30T20:10:17.190180,1381427,-1620,531,-976,-7331,-1808,-1133,164,434,-20
1259,1,2022-09-30T20:10:17.201518,1381436,-1620,531,-976,-7331,-1808,-1133,164,434,-20
1260,1,2022-09-30T20:10:17.219446,1381454,-1625,528,-954,-7636,-1915,-1199,181,439,-5
1261,1,2022-09-30T20:10:17.232929,1381469,-1621,522,-942,-7882,-1984,-1286,181,439,-5
1262,1,2022-09-30T20:10:17.243948,1381480,-1611,519,-928,-8074,-2025,-1363,181,439,-5
1263,1,2022-09-30T20:10:17.257214,1381491,-1611,519,-928,-8074,-2025,-1363,181,439,-5
1264,1,2022-09-30T20:10:17.268180,1381502,-1611,508,-921,-8207,-1947,-1415,181,439,-5
1265,1,2022-09-30T20:10:17.281156,1381518,-1611,508,-921,-8207,-1947,-1415,181,439,-5
1266,1,2022-09-30T20:10:17.291836,1381528,-1606,503,-921,-8265,-1839,-1448,181,439,-5
1267,1,2022-09-30T20:10:17.304417,1381537,-1606,503,-921,-8265,-1839,-1448,181,439,-5
1268,1,2022-09-30T20:10:17.318843,1381555,-1615,500,-912,-8294,-1721,-1482,181,439,-5
1269,1,2022-09-30T20:10:17.339138,1381574,-1615,498,-906,-8340,-1645,-1520,181,439,-5
1270,1,2022-09-30T20:10:17.350898,1381586,-1614,501,-907,-8419,-1554,-1589,202,426,2
1271,1,2022-09-30T20:10:17.360252,1381597,-1614,501,-907,-8419,-1554,-1589,202,426,2
1272,1,2022-09-30T20:10:17.367565,1381604,-1620,498,-909,-8518,-1455,-1652,202,426,2
1273,1,2022-09-30T20:10:17.375373,1381611,-1620,498,-909,-8518,-1455,-1652,202,426,2
1274,1,2022-09-30T20:10:17.381671,1381618,-1620,498,-909,-8518,-1455,-1652,202,426,2
1275,1,2022-09-30T20:10:17.389093,1381625,-1623,497,-905,-8669,-1409,-1652,202,426,2
1276,1,2022-09-30T20:10:17.396326,1381633,-1623,497,-905,-8669,-1409,-1652,202,426,2
1277,1,2022-09-30T20:10:17.404242,1381639,-1622,495,-906,-8845,-1399,-1638,202,426,2
1278,1,2022-09-30T20:10:17.414316,1381651,-1622,495,-906,-8845,-1399,-1638,202,426,2
1279,1,2022-09-30T20:10:17.422716,1381659,-1625,486,-908,-9016,-1391,-1626,202,426,2
1280,1,2022-09-30T20:10:17.431943,1381668,-1625,486,-908,-9016,-1391,-1626,202,426,2
1281,1,2022-09-30T20:10:17.438025,1381675,-1625,486,-908,-9016,-1391,-1626,202,426,2
1282,1,2022-09-30T20:10:17.447392,1381684,-1626,484,-915,-9172,-1395,-1640,202,426,2
1283,1,2022-09-30T20:10:17.457172,1381693,-1626,484,-915,-9172,-1395,-1640,202,426,2
1284,1,2022-09-30T20:10:17.464004,1381700,-1626,484,-918,-9313,-1410,-1649,206,424,12
1285,1,2022-09-30T20:10:17.473006,1381709,-1626,484,-918,-9313,-1410,-1649,206,424,12
1286,1,2022-09-30T20:10:17.483322,1381720,-1634,486,-917,-9454,-1432,-1631,206,424,12
1287,1,2022-09-30T20:10:17.493379,1381730,-1634,486,-917,-9454,-1432,-1631,206,424,12
1288,1,2022-09-30T20:10:17.500694,1381736,-1634,486,-917,-9454,-1432,-1631,206,424,12
1289,1,2022-09-30T20:10:17.513013,1381749,-1632,487,-916,-9605,-1481,-1615,206,424,12
1290,1,2022-09-30T20:10:17.522454,1381758,-1625,488,-912,-9766,-1534,-1638,206,424,12
1291,1,2022-09-30T20:10:17.536209,1381773,-1625,488,-912,-9766,-1534,-1638,206,424,12
1292,1,2022-09-30T20:10:17.544102,1381780,-1622,486,-907,-9913,-1552,-1686,206,424,12
1293,1,2022-09-30T20:10:17.556355,1381791,-1622,486,-907,-9913,-1552,-1686,206,424,12
1294,1,2022-09-30T20:10:17.565341,1381801,-1623,483,-911,-10054,-1563,-1718,206,424,12
1295,1,2022-09-30T20:10:17.573883,1381810,-1623,483,-911,-10054,-1563,-1718,206,424,12
1296,1,2022-09-30T20:10:17.580085,1381816,-1623,483,-911,-10054,-1563,-1718,206,424,12
1297,1,2022-09-30T20:10:17.587547,1381824,-1619,482,-902,-10198,-1597,-1733,224,428,12
1298,1,2022-09-30T20:10:17.593355,1381830,-1619,482,-902,-10198,-1597,-1733,224,428,12
1299,1,2022-09-30T20:10:17.600174,1381835,-1619,482,-902,-10198,-1597,-1733,224,428,12
1300,1,2022-09-30T20:10:17.609095,1381846,-1619,482,-902,-10198,-1597,-1733,224,428,12
1301,1,2022-09-30T20:10:17.614991,1381852,-1619,482,-902,-10198,-1597,-1733,224,428,12
1302,1,2022-09-30T20:10:17.620722,1381857,-1619,482,-902,-10198,-1597,-1733,224,428,12
1303,1,2022-09-30T20:10:17.627490,1381864,-1630,479,-902,-10462,-1672,-1779,224,428,12
1304,1,2022-09-30T20:10:17.635342,1381872,-1630,479,-902,-10462,-1672,-1779,224,428,12
1305,1,2022-09-30T20:10:17.640737,1381877,-1630,479,-902,-10462,-1672,-1779,224,428,12
1306,1,2022-09-30T20:10:17.647332,1381883,-1627,474,-898,-10606,-1700,-1792,224,428,12
1307,1,2022-09-30T20:10:17.656715,1381894,-1627,474,-898,-10606,-1700,-1792,224,428,12
1308,1,2022-09-30T20:10:17.662558,1381899,-1624,469,-892,-10733,-1689,-1770,224,428,12
1309,1,2022-09-30T20:10:17.670867,1381908,-1624,469,-892,-10733,-1689,-1770,224,428,12
1310,1,2022-09-30T20:10:17.676620,1381913,-1624,469,-892,-10733,-1689,-1770,224,428,12
1311,1,2022-09-30T20:10:17.682186,1381919,-1626,465,-890,-10828,-1657,-1728,224,428,12
1312,1,2022-09-30T20:10:17.690104,1381926,-1626,465,-890,-10828,-1657,-1728,224,428,12
1313,1,2022-09-30T20:10:17.695603,1381933,-1626,465,-890,-10828,-1657,-1728,224,428,12
1314,1,2022-09-30T20:10:17.701702,1381938,-1626,465,-890,-10828,-1657,-1728,224,428,12
1315,1,2022-09-30T20:10:17.708841,1381946,-1622,467,-886,-10907,-1633,-1674,241,417,7
1316,1,2022-09-30T20:10:17.715335,1381952,-1622,467,-886,-10907,-1633,-1674,241,417,7
1317,1,2022-09-30T20:10:17.721031,1381957,-1622,467,-886,-10907,-1633,-1674,241,417,7
1318,1,2022-09-30T20:10:17.727672,1381964,-1624,468,-884,-10962,-1557,-1616,241,417,7
1319,1,2022-09-30T20:10:17.734261,1381971,-1624,468,-884,-10962,-1557,-1616,241,417,7
1320,1,2022-09-30T20:10:17.739787,1381977,-1624,468,-884,-10962,-1557,-1616,241,417,7
1321,1,2022-09-30T20:10:17.746125,1381983,-1627,473,-888,-10985,-1494,-1544,241,417,7
1322,1,2022-09-30T20:10:17.753235,1381990,-1627,473,-888,-10985,-1494,-1544,241,417,7
1323,1,2022-09-30T20:10:17.758613,1381995,-1627,473,-888,-10985,-1494,-1544,241,417,7
1324,1,2022-09-30T20:10:17.765376,1382002,-1623,486,-895,-11030,-1417,-1437,241,417,7
1325,1,2022-09-30T20:10:17.772405,1382009,-1623,486,-895,-11030,-1417,-1437,241,417,7
1326,1,2022-09-30T20:10:17.778211,1382014,-1623,486,-895,-11030,-1417,-1437,241,417,7
1327,1,2022-09-30T20:10:17.784958,1382022,-1623,492,-902,-11077,-1340,-1334,241,417,7
1328,1,2022-09-30T20:10:17.791697,1382029,-1623,492,-902,-11077,-1340,-1334,241,417,7
1329,1,2022-09-30T20:10:17.796905,1382034,-1623,492,-902,-11077,-1340,-1334,241,417,7
1330,1,2022-09-30T20:10:17.802675,1382039,-1631,503,-906,-11101,-1254,-1225,241,417,7
1331,1,2022-09-30T20:10:17.807827,1382044,-1631,503,-906,-11101,-1254,-1225,241,417,7
1332,1,2022-09-30T20:10:17.813455,1382050,-1631,503,-906,-11101,-1254,-1225,241,417,7
1333,1,2022-09-30T20:10:17.819025,1382055,-1631,503,-906,-11101,-1254,-1225,241,417,7
1334,1,2022-09-30T20:10:17.825770,1382063,-1637,525,-918,-11138,-1188,-1158,241,417,7
1335,1,2022-09-30T20:10:17.832967,1382070,-1637,525,-918,-11138,-1188,-1158,241,417,7
1336,1,2022-09-30T20:10:17.838406,1382075,-1637,525,-918,-11138,-1188,-1158,241,417,7
1337,1,2022-09-30T20:10:17.845450,1382081,-1632,553,-919,-11239,-1150,-1109,266,430,12
1338,1,2022-09-30T20:10:17.858217,1382093,-1632,553,-919,-11239,-1150,-1109,266,430,12
1339,1,2022-09-30T20:10:17.865388,1382102,-1605,555,-920,-11430,-1238,-1000,266,430,12
1340,1,2022-09-30T20:10:17.873967,1382111,-1605,555,-920,-11430,-1238,-1000,266,430,12
1341,1,2022-09-30T20:10:17.882986,1382120,-1641,571,-940,-11520,-1127,-1134,266,430,12
1342,1,2022-09-30T20:10:17.893308,1382130,-1641,571,-940,-11520,-1127,-1134,266,430,12
1343,1,2022-09-30T20:10:17.901061,1382136,-1641,571,-940,-11520,-1127,-1134,266,430,12
1344,1,2022-09-30T20:10:17.913015,1382150,-1611,591,-939,-11692,-1190,-1222,266,430,12
1345,1,2022-09-30T20:10:17.920881,1382158,-1611,591,-939,-11692,-1190,-1222,266,430,12
1346,1,2022-09-30T20:10:17.929065,1382165,-1608,570,-952,-11854,-1157,-1264,266,430,12
1347,1,2022-09-30T20:10:17.937878,1382174,-1608,570,-952,-11854,-1157,-1264,266,430,12
1348,1,2022-09-30T20:10:17.943809,1382180,-1632,549,-968,-11818,-1011,-1425,266,430,12
1349,1,2022-09-30T20:10:17.953129,1382189,-1632,549,-968,-11818,-1011,-1425,266,430,12
1350,1,2022-09-30T20:10:17.962056,1382198,-1625,533,-965,-11679,-998,-1617,280,430,12
1351,1,2022-09-30T20:10:17.970677,1382207,-1625,533,-965,-11679,-998,-1617,280,422,-2
1352,1,2022-09-30T20:10:17.976617,1382213,-1625,533,-965,-11679,-998,-1617,280,422,-2
1353,1,2022-09-30T20:10:17.983497,1382220,-1616,534,-974,-11478,-988,-1813,280,422,-2
1354,1,2022-09-30T20:10:17.992112,1382228,-1616,534,-974,-11478,-988,-1813,280,422,-2
1355,1,2022-09-30T20:10:17.998460,1382235,-1616,534,-974,-11478,-988,-1813,280,422,-2
1356,1,2022-09-30T20:10:18.016323,1382252,-1622,546,-975,-11327,-980,-1954,280,422,-2
1357,1,2022-09-30T20:10:18.033408,1382270,-1622,546,-975,-11327,-980,-1954,280,422,-2
1358,1,2022-09-30T20:10:18.043202,1382280,-1633,563,-982,-11392,-1114,-2052,280,422,-2
1359,1,2022-09-30T20:10:18.054741,1382291,-1633,563,-982,-11392,-1114,-2052,280,422,-2
1360,1,2022-09-30T20:10:18.062906,1382299,-1630,557,-985,-11552,-1244,-2015,280,422,-2
1361,1,2022-09-30T20:10:18.073561,1382309,-1630,557,-985,-11552,-1244,-2015,280,422,-2
1362,1,2022-09-30T20:10:18.083600,1382320,-1636,550,-986,-11680,-1331,-1990,298,410,-20
1363,1,2022-09-30T20:10:18.097253,1382333,-1636,550,-986,-11680,-1331,-1990,298,410,-20
1364,1,2022-09-30T20:10:18.108423,1382345,-1631,556,-979,-11807,-1472,-1945,298,410,-20
1365,1,2022-09-30T20:10:18.117913,1382353,-1631,556,-979,-11807,-1472,-1945,298,410,-20
1366,1,2022-09-30T20:10:18.127526,1382364,-1633,555,-976,-11919,-1604,-1926,298,410,-20
1367,1,2022-09-30T20:10:18.138346,1382375,-1633,555,-976,-11919,-1604,-1926,298,410,-20
1368,1,2022-09-30T20:10:18.151878,1382384,-1621,557,-971,-12037,-1715,-1872,298,410,-20
1369,1,2022-09-30T20:10:18.163593,1382400,-1625,551,-959,-12076,-1728,-1844,298,410,-20
1370,1,2022-09-30T20:10:18.179249,1382412,-1625,551,-959,-12076,-1728,-1844,298,410,-20
1371,1,2022-09-30T20:10:18.187423,1382424,-1620,547,-958,-12059,-1723,-1877,298,410,-20
1372,1,2022-09-30T20:10:18.200132,1382435,-1620,547,-958,-12059,-1723,-1877,298,410,-20
1373,1,2022-09-30T20:10:18.211674,1382449,-1620,550,-951,-12007,-1672,-1942,319,411,-31
1374,1,2022-09-30T20:10:18.220941,1382458,-1620,550,-951,-12007,-1672,-1942,319,411,-31
1375,1,2022-09-30T20:10:18.234788,1382470,-1613,548,-946,-11945,-1621,-1997,319,411,-31
1376,1,2022-09-30T20:10:18.247065,1382483,-1615,539,-946,-11861,-1520,-2045,319,411,-31
1377,1,2022-09-30T20:10:18.261728,1382498,-1615,539,-946,-11861,-1520,-2045,319,411,-31
1378,1,2022-09-30T20:10:18.281757,1382517,-1614,535,-950,-11767,-1433,-2109,319,411,-31
1379,1,2022-09-30T20:10:18.292063,1382529,-1616,533,-951,-11675,-1359,-2155,319,411,-31
1380,1,2022-09-30T20:10:18.299671,1382534,-1616,533,-951,-11675,-1359,-2155,319,411,-31
1381,1,2022-09-30T20:10:18.308754,1382545,-1610,523,-959,-11600,-1296,-2156,319,411,-31
1382,1,2022-09-30T20:10:18.319641,1382555,-1610,523,-959,-11600,-1296,-2156,319,411,-31
1383,1,2022-09-30T20:10:18.336201,1382573,-1613,516,-959,-11508,-1229,-2127,319,411,-31
1384,1,2022-09-30T20:10:18.347227,1382584,-1616,515,-963,-11417,-1198,-2097,337,409,-51
1385,1,2022-09-30T20:10:18.365357,1382601,-1619,518,-972,-11350,-1202,-2092,337,409,-51
1386,1,2022-09-30T20:10:18.377152,1382612,-1619,518,-972,-11350,-1202,-2092,337,409,-51
1387,1,2022-09-30T20:10:18.386181,1382623,-1618,518,-973,-11313,-1218,-2136,337,409,-51
1388,1,2022-09-30T20:10:18.395014,1382632,-1618,518,-973,-11313,-1218,-2136,337,409,-51
1389,1,2022-09-30T20:10:18.408918,1382644,-1612,512,-977,-11295,-1242,-2160,337,409,-51
1390,1,2022-09-30T20:10:18.415463,1382652,-1612,512,-977,-11295,-1242,-2160,337,409,-51
1391,1,2022-09-30T20:10:18.423135,1382660,-1616,505,-974,-11259,-1248,-2183,337,409,-51
1392,1,2022-09-30T20:10:18.434956,1382671,-1616,505,-974,-11259,-1248,-2183,337,409,-51
1393,1,2022-09-30T20:10:18.441863,1382678,-1616,505,-974,-11259,-1248,-2183,337,409,-51
1394,1,2022-09-30T20:10:18.454172,1382687,-1618,494,-980,-11211,-1273,-2182,337,409,-51
1395,1,2022-09-30T20:10:18.465491,1382702,-1616,486,-982,-11146,-1326,-2152,337,405,-61
1396,1,2022-09-30T20:10:18.482848,1382719,-1617,484,-978,-11066,-1354,-2102,337,405,-61
1397,1,2022-09-30T20:10:18.494836,1382731,-1617,484,-978,-11066,-1354,-2102,337,405,-61
1398,1,2022-09-30T20:10:18.505984,1382742,-1615,481,-978,-10986,-1388,-2035,337,405,-61
1399,1,2022-09-30T20:10:18.517876,1382754,-1615,481,-978,-10986,-1388,-2035,337,405,-61
1400,1,2022-09-30T20:10:18.527535,1382764,-1618,479,-981,-10905,-1406,-1951,337,405,-61
1401,1,2022-09-30T20:10:18.537730,1382774,-1618,479,-981,-10905,-1406,-1951,337,405,-61
1402,1,2022-09-30T20:10:18.546838,1382784,-1617,475,-976,-10821,-1426,-1872,337,405,-61
1403,1,2022-09-30T20:10:18.560533,1382797,-1617,475,-976,-10821,-1426,-1872,337,405,-61
1404,1,2022-09-30T20:10:18.570958,1382807,-1624,476,-975,-10744,-1458,-1812,337,405,-61
1405,1,2022-09-30T20:10:18.582833,1382819,-1619,481,-972,-10664,-1507,-1735,353,403,-85
1406,1,2022-09-30T20:10:18.594038,1382831,-1619,481,-972,-10664,-1507,-1735,353,403,-85
1407,1,2022-09-30T20:10:18.603909,1382839,-1619,481,-972,-10664,-1507,-1735,353,403,-85
1408,1,2022-09-30T20:10:18.612057,1382848,-1623,479,-969,-10581,-1531,-1644,353,403,-85
1409,1,2022-09-30T20:10:18.621640,1382858,-1623,479,-969,-10581,-1531,-1644,353,403,-85
1410,1,2022-09-30T20:10:18.641122,1382877,-1620,481,-968,-10485,-1544,-1553,353,403,-85
1411,1,2022-09-30T20:10:18.653831,1382889,-1619,483,-965,-10370,-1551,-1486,353,403,-85
1412,1,2022-09-30T20:10:18.663806,1382900,-1615,493,-964,-10243,-1556,-1434,353,403,-85
1413,1,2022-09-30T20:10:18.675532,1382910,-1615,493,-964,-10243,-1556,-1434,353,403,-85
1414,1,2022-09-30T20:10:18.684046,1382921,-1620,498,-961,-10097,-1544,-1394,353,403,-85
1415,1,2022-09-30T20:10:18.694611,1382931,-1620,498,-961,-10097,-1544,-1394,353,403,-85
1416,1,2022-09-30T20:10:18.706498,1382942,-1623,504,-957,-9972,-1551,-1344,355,399,-105
1417,1,2022-09-30T20:10:18.719254,1382956,-1623,504,-957,-9972,-1551,-1344,355,399,-105
1418,1,2022-09-30T20:10:18.728837,1382966,-1619,502,-958,-9824,-1536,-1327,355,399,-105
1419,1,2022-09-30T20:10:18.739496,1382976,-1619,502,-958,-9824,-1536,-1327,355,399,-105
1420,1,2022-09-30T20:10:18.749926,1382985,-1614,506,-942,-9656,-1557,-1339,355,399,-105
1421,1,2022-09-30T20:10:18.761915,1382999,-1614,506,-942,-9656,-1557,-1339,355,399,-105
1422,1,2022-09-30T20:10:18.775252,1383009,-1625,516,-938,-9499,-1571,-1390,355,399,-105
1423,1,2022-09-30T20:10:18.787520,1383023,-1620,519,-938,-9400,-1581,-1398,355,399,-105
1424,1,2022-09-30T20:10:18.797472,1383034,-1620,519,-938,-9400,-1581,-1398,355,399,-105
1425,1,2022-09-30T20:10:18.806607,1383043,-1609,503,-936,-9286,-1500,-1379,355,399,-105
1426,1,2022-09-30T20:10:18.817152,1383054,-1609,503,-936,-9286,-1500,-1379,355,399,-105
1427,1,2022-09-30T20:10:18.829601,1383066,-1605,486,-937,-9081,-1362,-1422,355,399,-105
1428,1,2022-09-30T20:10:18.838668,1383075,-1605,486,-937,-9081,-1362,-1422,355,399,-105
1429,1,2022-09-30T20:10:18.845319,1383081,-1609,477,-935,-8782,-1230,-1539,355,387,-125
1430,1,2022-09-30T20:10:18.857687,1383095,-1609,477,-935,-8782,-1230,-1539,355,387,-125
1431,1,2022-09-30T20:10:18.866053,1383100,-1615,466,-934,-8449,-1121,-1635,355,387,-125
1432,1,2022-09-30T20:10:18.876398,1383113,-1615,466,-934,-8449,-1121,-1635,355,387,-125
1433,1,2022-09-30T20:10:18.882314,1383118,-1619,464,-932,-8156,-1071,-1661,355,387,-125
1434,1,2022-09-30T20:10:18.890934,1383128,-1619,464,-932,-8156,-1071,-1661,355,387,-125
1435,1,2022-09-30T20:10:18.896794,1383134,-1619,464,-932,-8156,-1071,-1661,355,387,-125
1436,1,2022-09-30T20:10:18.904177,1383139,-1617,466,-936,-7913,-1067,-1632,355,387,-125
1437,1,2022-09-30T20:10:18.914680,1383151,-1617,466,-936,-7913,-1067,-1632,355,387,-125
1438,1,2022-09-30T20:10:18.921719,1383158,-1617,466,-936,-7913,-1067,-1632,355,387,-125
1439,1,2022-09-30T20:10:18.926891,1383163,-1621,462,-937,-7727,-1062,-1610,355,387,-125
