,imu,server_time,arduino_time,ax,ay,az,gx,gy,gz,mx,my,mz
0,2,2022-09-30T20:10:05.291158,1369503,-5518,174,-658,-534,-275,-508,26,428,-194
1,2,2022-09-30T20:10:05.303397,1369535,-5529,171,-657,-307,-291,-348,26,428,-194
2,2,2022-09-30T20:10:05.315107,1369548,-5534,182,-653,-102,-360,-216,26,428,-194
3,2,2022-09-30T20:10:05.327875,1369563,-5526,188,-650,15,-410,-74,37,423,-191
4,2,2022-09-30T20:10:05.339848,1369574,-5526,188,-650,15,-410,-74,37,423,-191
5,2,2022-09-30T20:10:05.348168,1369582,-5514,186,-644,101,-422,72,37,423,-191
6,2,2022-09-30T20:10:05.358605,1369592,-5514,186,-644,101,-422,72,37,423,-191
7,2,2022-09-30T20:10:05.365384,1369600,-5519,193,-650,164,-398,207,37,423,-191
8,2,2022-09-30T20:10:05.372753,1369607,-5519,193,-650,164,-398,207,37,423,-191
9,2,2022-09-30T20:10:05.380549,1369615,-5519,193,-650,164,-398,207,37,423,-191
10,2,2022-09-30T20:10:05.387563,1369622,-5519,193,-639,223,-391,307,37,423,-191
11,2,2022-09-30T20:10:05.397737,1369632,-5519,193,-639,223,-391,307,37,423,-191
12,2,2022-09-30T20:10:05.405588,1369639,-5512,196,-639,345,-359,421,37,423,-191
13,2,2022-09-30T20:10:05.414666,1369649,-5512,196,-639,345,-359,421,37,423,-191
14,2,2022-09-30T20:10:05.422922,1369657,-5512,196,-639,345,-359,421,37,423,-191
15,2,2022-09-30T20:10:05.433368,1369667,-5514,200,-644,477,-291,537,37,423,-191
16,2,2022-09-30T20:10:05.441160,1369675,-5514,200,-644,477,-291,537,37,423,-191
17,2,2022-09-30T20:10:05.449665,1369682,-5521,208,-639,573,-217,698,27,433,-181
18,2,2022-09-30T20:10:05.457345,1369692,-5521,208,-639,573,-217,698,27,433,-181
19,2,2022-09-30T20:10:05.464960,1369699,-5541,216,-638,598,-180,808,27,433,-181
20,2,2022-09-30T20:10:05.472634,1369707,-5541,216,-638,598,-180,808,27,433,-181
21,2,2022-09-30T20:10:05.480223,1369714,-5541,216,-638,598,-180,808,27,433,-181
22,2,2022-09-30T20:10:05.487922,1369722,-5554,232,-632,528,-263,687,27,433,-181
23,2,2022-09-30T20:10:05.500879,1369733,-5554,232,-632,528,-263,687,27,433,-181
24,2,2022-09-30T20:10:05.508229,1369742,-5550,245,-630,382,-361,519,27,433,-181
25,2,2022-09-30T20:10:05.518788,1369752,-5550,245,-630,382,-361,519,27,433,-181
26,2,2022-09-30T20:10:05.526490,1369760,-5534,243,-628,265,-423,424,27,433,-181
27,2,2022-09-30T20:10:05.534185,1369768,-5534,243,-628,265,-423,424,27,433,-181
28,2,2022-09-30T20:10:05.541820,1369776,-5534,243,-628,265,-423,424,27,433,-181
29,2,2022-09-30T20:10:05.548929,1369783,-5526,243,-621,189,-445,359,27,433,-181
30,2,2022-09-30T20:10:05.556992,1369791,-5526,243,-621,189,-445,359,27,433,-181
31,2,2022-09-30T20:10:05.564875,1369799,-5527,243,-619,108,-445,250,34,428,-192
32,2,2022-09-30T20:10:05.573151,1369806,-5527,243,-619,108,-445,250,34,428,-192
33,2,2022-09-30T20:10:05.580751,1369815,-5527,243,-619,108,-445,250,34,428,-192
34,2,2022-09-30T20:10:05.588457,1369823,-5522,246,-622,61,-423,116,34,428,-192
35,2,2022-09-30T20:10:05.599168,1369833,-5522,246,-622,61,-423,116,34,428,-192
36,2,2022-09-30T20:10:05.607228,1369841,-5523,244,-615,39,-367,45,34,428,-192
37,2,2022-09-30T20:10:05.617651,1369851,-5523,244,-615,39,-367,45,34,428,-192
38,2,2022-09-30T20:10:05.624791,1369859,-5518,241,-604,8,-322,47,34,428,-192
39,2,2022-09-30T20:10:05.632833,1369866,-5518,241,-604,8,-322,47,34,428,-192
40,2,2022-09-30T20:10:05.641514,1369875,-5518,241,-604,8,-322,47,34,428,-192
41,2,2022-09-30T20:10:05.655291,1369886,-5519,242,-610,-27,-288,12,34,428,-192
42,2,2022-09-30T20:10:05.681420,1369899,-5519,245,-610,-77,-228,-4,34,428,-192
43,2,2022-09-30T20:10:05.689944,1369923,-5516,250,-615,-148,-163,21,34,426,-184
44,2,2022-09-30T20:10:05.702858,1369936,-5516,250,-615,-148,-163,21,34,426,-184
45,2,2022-09-30T20:10:05.713659,1369948,-5524,250,-614,-212,-119,123,34,426,-184
46,2,2022-09-30T20:10:05.721101,1369955,-5524,250,-614,-212,-119,123,34,426,-184
47,2,2022-09-30T20:10:05.730008,1369963,-5533,247,-620,-258,-103,208,34,426,-184
48,2,2022-09-30T20:10:05.746295,1369980,-5530,244,-619,-302,-115,227,34,426,-184
49,2,2022-09-30T20:10:05.759171,1369994,-5530,244,-619,-302,-115,227,34,426,-184
50,2,2022-09-30T20:10:05.771714,1370005,-5508,248,-623,-323,-80,229,34,426,-184
51,2,2022-09-30T20:10:05.785346,1370019,-5517,260,-630,-328,15,250,34,426,-184
52,2,2022-09-30T20:10:05.800427,1370035,-5517,260,-630,-328,15,250,34,426,-184
53,2,2022-09-30T20:10:05.811423,1370046,-5517,260,-630,-328,15,250,34,426,-184
54,2,2022-09-30T20:10:05.821976,1370056,-5517,260,-630,-328,15,250,34,426,-184
55,2,2022-09-30T20:10:05.832380,1370067,-5559,261,-633,-354,5,251,27,427,-181
56,2,2022-09-30T20:10:05.842353,1370077,-5559,261,-633,-354,5,251,27,427,-181
57,2,2022-09-30T20:10:05.854095,1370088,-5550,266,-641,-318,-132,249,27,427,-181
58,2,2022-09-30T20:10:05.927751,1370098,-5537,276,-644,-275,-231,295,27,427,-181
59,2,2022-09-30T20:10:05.940472,1370175,-5528,281,-633,-421,-312,438,27,427,-181
60,2,2022-09-30T20:10:05.948922,1370182,-5525,270,-631,-355,-254,412,27,431,-185
61,2,2022-09-30T20:10:05.960209,1370194,-5525,270,-631,-355,-254,412,27,431,-185
62,2,2022-09-30T20:10:05.967952,1370203,-5530,265,-630,-213,-169,384,27,431,-185
63,2,2022-09-30T20:10:05.978477,1370213,-5530,265,-630,-213,-169,384,27,431,-185
64,2,2022-09-30T20:10:05.985860,1370221,-5535,272,-636,-52,-148,351,27,431,-185
65,2,2022-09-30T20:10:05.996799,1370231,-5535,272,-636,-52,-148,351,27,431,-185
66,2,2022-09-30T20:10:06.005030,1370238,-5529,283,-634,66,-149,337,27,431,-185
67,2,2022-09-30T20:10:06.012992,1370248,-5529,283,-634,66,-149,337,27,431,-185
68,2,2022-09-30T20:10:06.023898,1370258,-5529,287,-631,118,-144,369,27,431,-185
69,2,2022-09-30T20:10:06.031813,1370266,-5529,287,-631,118,-144,369,27,431,-185
70,2,2022-09-30T20:10:06.042950,1370276,-5529,287,-631,118,-144,369,27,431,-185
71,2,2022-09-30T20:10:06.058025,1370285,-5526,287,-635,127,-149,400,27,431,-185
72,2,2022-09-30T20:10:06.066299,1370301,-5531,288,-630,143,-152,408,25,427,-201
73,2,2022-09-30T20:10:06.077889,1370312,-5531,288,-630,143,-152,408,25,427,-201
74,2,2022-09-30T20:10:06.085923,1370320,-5528,291,-631,176,-154,412,25,427,-201
75,2,2022-09-30T20:10:06.099053,1370328,-5528,291,-631,176,-154,412,25,427,-201
76,2,2022-09-30T20:10:06.106136,1370341,-5529,302,-631,168,-133,432,25,427,-201
77,2,2022-09-30T20:10:06.113796,1370348,-5529,302,-631,168,-133,432,25,427,-201
78,2,2022-09-30T20:10:06.121012,1370355,-5529,302,-631,168,-133,432,25,427,-201
79,2,2022-09-30T20:10:06.128115,1370362,-5540,320,-635,81,-145,420,25,427,-201
80,2,2022-09-30T20:10:06.137683,1370373,-5540,320,-635,81,-145,420,25,427,-201
81,2,2022-09-30T20:10:06.145859,1370381,-5553,321,-636,-94,-212,358,25,427,-201
82,2,2022-09-30T20:10:06.153544,1370388,-5553,321,-636,-94,-212,358,25,427,-201
83,2,2022-09-30T20:10:06.161083,1370395,-5553,321,-636,-94,-212,358,25,427,-201
84,2,2022-09-30T20:10:06.169323,1370403,-5546,315,-641,-248,-289,225,25,427,-201
85,2,2022-09-30T20:10:06.176623,1370412,-5546,315,-641,-248,-289,225,25,427,-201
86,2,2022-09-30T20:10:06.184046,1370419,-5535,310,-636,-289,-324,101,19,427,-187
87,2,2022-09-30T20:10:06.191253,1370426,-5535,310,-636,-289,-324,101,19,427,-187
88,2,2022-09-30T20:10:06.201408,1370436,-5535,310,-636,-289,-324,101,19,427,-187
89,2,2022-09-30T20:10:06.211116,1370445,-5533,309,-639,-246,-328,-15,19,427,-187
90,2,2022-09-30T20:10:06.220668,1370455,-5533,309,-639,-246,-328,-15,19,427,-187
91,2,2022-09-30T20:10:06.230662,1370465,-5528,319,-641,-227,-284,-102,19,427,-187
92,2,2022-09-30T20:10:06.237755,1370472,-5528,319,-641,-227,-284,-102,19,427,-187
93,2,2022-09-30T20:10:06.275511,1370479,-5531,322,-635,-251,-235,-120,19,427,-187
94,2,2022-09-30T20:10:06.283722,1370518,-5540,316,-632,-314,-211,-137,19,427,-187
95,2,2022-09-30T20:10:06.295765,1370530,-5540,316,-632,-314,-211,-137,19,427,-187
96,2,2022-09-30T20:10:06.305456,1370540,-5531,317,-636,-364,-203,-188,28,422,-190
97,2,2022-09-30T20:10:06.316678,1370551,-5531,317,-636,-364,-203,-188,28,422,-190
98,2,2022-09-30T20:10:06.324959,1370559,-5522,303,-638,-385,-158,-200,28,422,-190
99,2,2022-09-30T20:10:06.332952,1370567,-5522,303,-638,-385,-158,-200,28,422,-190
100,2,2022-09-30T20:10:06.341834,1370576,-5522,303,-638,-385,-158,-200,28,422,-190
101,2,2022-09-30T20:10:06.349048,1370584,-5526,301,-633,-392,-102,-181,28,422,-190
102,2,2022-09-30T20:10:06.359207,1370593,-5526,301,-633,-392,-102,-181,28,422,-190
103,2,2022-09-30T20:10:06.368808,1370603,-5527,297,-639,-363,-80,-159,28,422,-190
104,2,2022-09-30T20:10:06.378710,1370613,-5527,297,-639,-363,-80,-159,28,422,-190
105,2,2022-09-30T20:10:06.386406,1370620,-5528,300,-638,-344,-74,-156,28,422,-190
106,2,2022-09-30T20:10:06.396070,1370631,-5528,300,-638,-344,-74,-156,28,422,-190
107,2,2022-09-30T20:10:06.403423,1370638,-5535,300,-637,-368,-74,-154,28,422,-190
108,2,2022-09-30T20:10:06.411139,1370646,-5535,300,-637,-368,-74,-154,28,422,-190
109,2,2022-09-30T20:10:06.420636,1370655,-5535,300,-637,-368,-74,-154,28,422,-190
110,2,2022-09-30T20:10:06.430057,1370664,-5534,296,-647,-414,-83,-140,28,422,-190
111,2,2022-09-30T20:10:06.440756,1370676,-5534,296,-647,-414,-83,-140,28,422,-190
112,2,2022-09-30T20:10:06.450376,1370683,-5532,297,-645,-458,-99,-101,24,422,-182
113,2,2022-09-30T20:10:06.459070,1370694,-5532,297,-645,-458,-99,-101,24,422,-182
114,2,2022-09-30T20:10:06.465666,1370701,-5528,296,-644,-450,-106,-38,24,422,-182
115,2,2022-09-30T20:10:06.475193,1370710,-5528,296,-644,-450,-106,-38,24,422,-182
116,2,2022-09-30T20:10:06.482727,1370718,-5528,296,-644,-450,-106,-38,24,422,-182
117,2,2022-09-30T20:10:06.489171,1370724,-5539,299,-646,-443,-127,-6,24,422,-182
118,2,2022-09-30T20:10:06.498606,1370733,-5539,299,-646,-443,-127,-6,24,422,-182
119,2,2022-09-30T20:10:06.506267,1370741,-5537,299,-644,-447,-168,7,24,422,-182
120,2,2022-09-30T20:10:06.515452,1370750,-5537,299,-644,-447,-168,7,24,422,-182
121,2,2022-09-30T20:10:06.522313,1370758,-5537,299,-644,-447,-168,7,24,422,-182
122,2,2022-09-30T20:10:06.529169,1370764,-5536,302,-650,-418,-203,59,24,422,-182
123,2,2022-09-30T20:10:06.539305,1370774,-5536,302,-650,-418,-203,59,24,422,-182
124,2,2022-09-30T20:10:06.558516,1370791,-5529,301,-649,-378,-231,131,24,422,-182
125,2,2022-09-30T20:10:06.573805,1370807,-5522,304,-645,-340,-240,163,24,434,-188
126,2,2022-09-30T20:10:06.588626,1370823,-5553,307,-647,-328,-224,145,24,434,-188
127,2,2022-09-30T20:10:06.604429,1370839,-5559,306,-652,-319,-265,137,24,434,-188
128,2,2022-09-30T20:10:06.616534,1370851,-5559,306,-652,-319,-265,137,24,434,-188
129,2,2022-09-30T20:10:06.626519,1370861,-5562,313,-645,-251,-360,141,24,434,-188
130,2,2022-09-30T20:10:06.642237,1370877,-5562,313,-645,-251,-360,141,24,434,-188
131,2,2022-09-30T20:10:06.651726,1370887,-5558,322,-643,-176,-466,138,24,434,-188
132,2,2022-09-30T20:10:06.675318,1370901,-5544,333,-639,-125,-566,81,24,434,-188
133,2,2022-09-30T20:10:06.687561,1370921,-5532,322,-632,-71,-578,-28,18,424,-188
134,2,2022-09-30T20:10:06.708046,1370941,-5496,326,-627,40,-619,-134,18,424,-188
135,2,2022-09-30T20:10:06.727923,1370959,-5523,321,-610,123,-577,-25,18,424,-188
136,2,2022-09-30T20:10:06.748317,1370979,-5532,306,-607,127,-558,-35,18,424,-188
137,2,2022-09-30T20:10:06.761121,1370994,-5532,306,-607,127,-558,-35,18,424,-188
138,2,2022-09-30T20:10:06.771724,1371006,-5525,308,-616,-34,-499,-251,18,424,-188
139,2,2022-09-30T20:10:06.786052,1371017,-5525,308,-616,-34,-499,-251,18,424,-188
140,2,2022-09-30T20:10:06.799671,1371031,-5525,308,-616,-34,-499,-251,18,424,-188
141,2,2022-09-30T20:10:06.810341,1371044,-5513,307,-617,-313,-252,-330,24,426,-186
142,2,2022-09-30T20:10:06.825946,1371059,-5513,289,-628,-331,-191,-169,24,426,-186
143,2,2022-09-30T20:10:06.837879,1371072,-5513,289,-628,-331,-191,-169,24,426,-186
144,2,2022-09-30T20:10:06.852756,1371087,-5537,301,-619,-325,-81,9,24,426,-186
145,2,2022-09-30T20:10:06.866642,1371102,-5554,305,-612,-332,-84,159,24,426,-186
146,2,2022-09-30T20:10:06.879539,1371115,-5554,305,-612,-332,-84,159,24,426,-186
147,2,2022-09-30T20:10:06.888414,1371123,-5525,310,-612,-337,-167,151,24,426,-186
148,2,2022-09-30T20:10:06.899594,1371132,-5525,310,-612,-337,-167,151,24,426,-186
149,2,2022-09-30T20:10:06.907409,1371143,-5514,317,-626,-347,-124,195,24,426,-186
150,2,2022-09-30T20:10:06.921658,1371156,-5514,317,-626,-347,-124,195,24,426,-186
151,2,2022-09-30T20:10:06.934121,1371169,-5532,303,-630,-305,-61,260,18,426,-192
152,2,2022-09-30T20:10:06.949084,1371182,-5550,299,-629,-230,-102,218,18,426,-192
153,2,2022-09-30T20:10:06.965010,1371200,-5543,316,-632,-179,-168,123,18,426,-192
154,2,2022-09-30T20:10:06.976459,1371211,-5543,316,-632,-179,-168,123,18,426,-192
155,2,2022-09-30T20:10:06.983647,1371218,-5543,316,-632,-179,-168,123,18,426,-192
156,2,2022-09-30T20:10:06.991532,1371226,-5531,318,-639,-150,-215,61,18,426,-192
157,2,2022-09-30T20:10:07.003107,1371238,-5531,318,-639,-150,-215,61,18,426,-192
158,2,2022-09-30T20:10:07.013009,1371247,-5545,312,-641,-145,-200,38,18,426,-192
159,2,2022-09-30T20:10:07.027117,1371260,-5543,331,-635,-138,-232,2,18,426,-192
160,2,2022-09-30T20:10:07.040411,1371276,-5543,331,-635,-138,-232,2,18,426,-192
161,2,2022-09-30T20:10:07.053516,1371288,-5548,298,-638,-91,-274,55,18,426,-192
162,2,2022-09-30T20:10:07.067193,1371299,-5542,328,-624,-13,-290,-63,16,430,-190
163,2,2022-09-30T20:10:07.081784,1371317,-5542,328,-624,-13,-290,-63,16,430,-190
164,2,2022-09-30T20:10:07.092494,1371328,-5538,334,-624,60,-296,-13,16,430,-190
165,2,2022-09-30T20:10:07.102035,1371337,-5538,334,-624,60,-296,-13,16,430,-190
166,2,2022-09-30T20:10:07.111172,1371346,-5530,342,-621,31,-356,-3,16,430,-190
167,2,2022-09-30T20:10:07.121184,1371355,-5530,342,-621,31,-356,-3,16,430,-190
168,2,2022-09-30T20:10:07.130682,1371366,-5530,342,-621,31,-356,-3,16,430,-190
169,2,2022-09-30T20:10:07.140092,1371374,-5530,342,-621,31,-356,-3,16,430,-190
170,2,2022-09-30T20:10:07.152306,1371387,-5520,345,-611,-141,-323,100,16,430,-190
171,2,2022-09-30T20:10:07.161340,1371396,-5520,345,-611,-141,-323,100,16,430,-190
172,2,2022-09-30T20:10:07.170800,1371406,-5532,330,-609,-126,-251,140,16,430,-190
173,2,2022-09-30T20:10:07.181293,1371416,-5532,330,-609,-126,-251,140,16,430,-190
174,2,2022-09-30T20:10:07.191097,1371425,-5535,335,-610,-148,-223,85,24,424,-178
175,2,2022-09-30T20:10:07.200472,1371436,-5535,335,-610,-148,-223,85,24,424,-178
176,2,2022-09-30T20:10:07.217205,1371445,-5525,343,-613,-195,-181,-88,24,424,-178
177,2,2022-09-30T20:10:07.228759,1371463,-5526,349,-618,-232,-110,-222,24,424,-178
178,2,2022-09-30T20:10:07.236673,1371472,-5526,349,-618,-232,-110,-222,24,424,-178
179,2,2022-09-30T20:10:07.243047,1371479,-5526,349,-618,-232,-110,-222,24,424,-178
180,2,2022-09-30T20:10:07.252336,1371487,-5523,347,-624,-249,-33,-250,24,424,-178
181,2,2022-09-30T20:10:07.264016,1371499,-5524,331,-624,-284,9,-234,24,424,-178
182,2,2022-09-30T20:10:07.272584,1371507,-5524,331,-624,-284,9,-234,24,424,-178
183,2,2022-09-30T20:10:07.283135,1371518,-5524,331,-624,-284,9,-234,24,424,-178
184,2,2022-09-30T20:10:07.302350,1371528,-5530,318,-624,-280,34,-233,24,424,-178
185,2,2022-09-30T20:10:07.311498,1371546,-5538,318,-625,-288,57,-265,16,426,-184
186,2,2022-09-30T20:10:07.324828,1371560,-5539,322,-632,-283,45,-233,16,426,-184
187,2,2022-09-30T20:10:07.336315,1371572,-5539,322,-632,-283,45,-233,16,426,-184
188,2,2022-09-30T20:10:07.345650,1371581,-5520,323,-641,-266,22,-160,16,426,-184
189,2,2022-09-30T20:10:07.354346,1371589,-5520,323,-641,-266,22,-160,16,426,-184
190,2,2022-09-30T20:10:07.363170,1371598,-5520,323,-641,-266,22,-160,16,426,-184
191,2,2022-09-30T20:10:07.372341,1371608,-5531,310,-643,-234,16,-91,16,426,-184
192,2,2022-09-30T20:10:07.380922,1371616,-5531,310,-643,-234,16,-91,16,426,-184
193,2,2022-09-30T20:10:07.392056,1371627,-5553,302,-640,-219,-23,-75,16,426,-184
194,2,2022-09-30T20:10:07.401115,1371636,-5553,302,-640,-219,-23,-75,16,426,-184
195,2,2022-09-30T20:10:07.408102,1371643,-5551,304,-640,-162,-135,-111,16,426,-184
196,2,2022-09-30T20:10:07.416352,1371652,-5551,304,-640,-162,-135,-111,16,426,-184
197,2,2022-09-30T20:10:07.423045,1371658,-5551,304,-640,-162,-135,-111,16,426,-184
198,2,2022-09-30T20:10:07.432049,1371667,-5529,307,-643,-81,-206,-100,20,428,-178
199,2,2022-09-30T20:10:07.440535,1371675,-5529,307,-643,-81,-206,-100,20,428,-178
200,2,2022-09-30T20:10:07.449650,1371684,-5527,308,-634,-10,-196,-88,20,428,-178
201,2,2022-09-30T20:10:07.458100,1371694,-5527,308,-634,-10,-196,-88,20,428,-178
202,2,2022-09-30T20:10:07.467024,1371702,-5534,306,-638,51,-188,-249,20,428,-178
203,2,2022-09-30T20:10:07.475087,1371710,-5534,306,-638,51,-188,-249,20,428,-178
204,2,2022-09-30T20:10:07.482138,1371717,-5534,306,-638,51,-188,-249,20,428,-178
205,2,2022-09-30T20:10:07.491503,1371725,-5528,321,-642,113,-136,-559,20,428,-178
206,2,2022-09-30T20:10:07.503460,1371739,-5528,321,-642,113,-136,-559,20,428,-178
207,2,2022-09-30T20:10:07.509679,1371745,-5518,333,-644,170,-25,-668,20,428,-178
208,2,2022-09-30T20:10:07.517794,1371753,-5518,333,-644,170,-25,-668,20,428,-178
209,2,2022-09-30T20:10:07.528122,1371763,-5530,334,-636,229,5,-513,20,428,-178
210,2,2022-09-30T20:10:07.539061,1371774,-5530,334,-636,229,5,-513,20,428,-178
211,2,2022-09-30T20:10:07.553140,1371789,-5541,331,-639,250,-66,-296,19,425,-189
212,2,2022-09-30T20:10:07.564204,1371797,-5541,331,-639,250,-66,-296,19,425,-189
213,2,2022-09-30T20:10:07.572500,1371806,-5547,329,-638,186,-154,-106,19,425,-189
214,2,2022-09-30T20:10:07.581762,1371816,-5547,329,-638,186,-154,-106,19,425,-189
215,2,2022-09-30T20:10:07.591845,1371827,-5536,331,-644,98,-234,17,19,425,-189
216,2,2022-09-30T20:10:07.600158,1371835,-5536,331,-644,98,-234,17,19,425,-189
217,2,2022-09-30T20:10:07.609303,1371844,-5537,326,-641,1,-263,95,19,425,-189
218,2,2022-09-30T20:10:07.621521,1371856,-5537,326,-641,1,-263,95,19,425,-189
219,2,2022-09-30T20:10:07.628267,1371864,-5535,316,-644,-69,-292,132,19,425,-189
220,2,2022-09-30T20:10:07.640688,1371871,-5535,316,-644,-69,-292,132,19,425,-189
221,2,2022-09-30T20:10:07.657021,1371882,-5531,310,-640,-57,-306,155,19,425,-189
222,2,2022-09-30T20:10:07.672030,1371907,-5530,310,-639,-12,-288,198,19,425,-189
223,2,2022-09-30T20:10:07.689012,1371923,-5514,320,-639,28,-261,237,18,428,-184
224,2,2022-09-30T20:10:07.700888,1371936,-5514,320,-639,28,-261,237,18,428,-184
225,2,2022-09-30T20:10:07.708166,1371942,-5530,322,-638,56,-214,281,18,428,-184
226,2,2022-09-30T20:10:07.714790,1371950,-5530,322,-638,56,-214,281,18,428,-184
227,2,2022-09-30T20:10:07.721056,1371957,-5530,322,-638,56,-214,281,18,428,-184
228,2,2022-09-30T20:10:07.742278,1371976,-5528,323,-636,22,-183,275,18,428,-184
229,2,2022-09-30T20:10:07.757688,1371993,-5539,331,-638,-13,-157,188,18,428,-184
230,2,2022-09-30T20:10:07.768378,1372004,-5538,336,-637,-85,-131,71,18,428,-184
231,2,2022-09-30T20:10:07.780538,1372015,-5538,336,-637,-85,-131,71,18,428,-184
232,2,2022-09-30T20:10:07.790260,1372022,-5537,338,-640,-118,-98,-18,18,428,-184
233,2,2022-09-30T20:10:07.799144,1372034,-5537,338,-640,-118,-98,-18,18,428,-184
234,2,2022-09-30T20:10:07.811584,1372044,-5536,334,-635,-137,-96,-60,5,427,-189
235,2,2022-09-30T20:10:07.825720,1372056,-5536,334,-635,-137,-96,-60,5,427,-189
236,2,2022-09-30T20:10:07.835456,1372070,-5533,329,-641,-152,-106,-62,5,427,-189
237,2,2022-09-30T20:10:07.842774,1372078,-5533,329,-641,-152,-106,-62,5,427,-189
238,2,2022-09-30T20:10:07.852705,1372088,-5537,326,-643,-154,-121,-66,5,427,-189
239,2,2022-09-30T20:10:07.865868,1372101,-5534,323,-645,-152,-138,-82,5,427,-189
240,2,2022-09-30T20:10:07.877992,1372113,-5534,323,-645,-152,-138,-82,5,427,-189
241,2,2022-09-30T20:10:07.884569,1372120,-5535,326,-641,-160,-149,-75,5,427,-189
242,2,2022-09-30T20:10:07.891325,1372127,-5535,326,-641,-160,-149,-75,5,427,-189
243,2,2022-09-30T20:10:07.901178,1372136,-5535,326,-641,-160,-149,-75,5,427,-189
244,2,2022-09-30T20:10:07.910093,1372145,-5535,319,-641,-141,-185,-42,5,427,-189
245,2,2022-09-30T20:10:07.915909,1372151,-5535,319,-641,-141,-185,-42,5,427,-189
246,2,2022-09-30T20:10:07.923180,1372157,-5535,319,-641,-141,-185,-42,5,427,-189
247,2,2022-09-30T20:10:07.929357,1372165,-5533,320,-638,-116,-211,-3,23,423,-191
248,2,2022-09-30T20:10:07.945776,1372171,-5533,320,-638,-116,-211,-3,23,423,-191
249,2,2022-09-30T20:10:07.954965,1372190,-5537,322,-640,-87,-232,31,23,423,-191
250,2,2022-09-30T20:10:07.962343,1372196,-5537,322,-640,-87,-232,31,23,423,-191
251,2,2022-09-30T20:10:07.973086,1372207,-5535,326,-642,-73,-247,51,23,423,-191
252,2,2022-09-30T20:10:07.985019,1372220,-5536,329,-645,-68,-254,69,23,423,-191
253,2,2022-09-30T20:10:07.992133,1372227,-5536,329,-645,-68,-254,69,23,423,-191
254,2,2022-09-30T20:10:07.998628,1372233,-5536,329,-645,-68,-254,69,23,423,-191
255,2,2022-09-30T20:10:08.007861,1372243,-5530,331,-643,-72,-265,78,23,423,-191
256,2,2022-09-30T20:10:08.016152,1372252,-5530,331,-643,-72,-265,78,23,423,-191
257,2,2022-09-30T20:10:08.024474,1372258,-5530,331,-643,-72,-265,78,23,423,-191
258,2,2022-09-30T20:10:08.034763,1372270,-5529,332,-648,-58,-267,95,23,423,-191
259,2,2022-09-30T20:10:08.042992,1372278,-5529,332,-648,-58,-267,95,23,423,-191
260,2,2022-09-30T20:10:08.053120,1372289,-5534,332,-638,-28,-245,116,13,431,-189
261,2,2022-09-30T20:10:08.059593,1372295,-5534,332,-638,-28,-245,116,13,431,-189
262,2,2022-09-30T20:10:08.069428,1372304,-5530,339,-638,6,-261,122,13,431,-189
263,2,2022-09-30T20:10:08.082480,1372318,-5530,339,-638,6,-261,122,13,431,-189
264,2,2022-09-30T20:10:08.093105,1372328,-5536,344,-640,20,-255,118,13,431,-189
265,2,2022-09-30T20:10:08.107604,1372342,-5541,352,-640,9,-244,116,13,431,-189
266,2,2022-09-30T20:10:08.117989,1372353,-5541,352,-640,9,-244,116,13,431,-189
267,2,2022-09-30T20:10:08.129967,1372365,-5525,351,-640,-11,-268,92,13,431,-189
268,2,2022-09-30T20:10:08.136586,1372371,-5525,351,-640,-11,-268,92,13,431,-189
269,2,2022-09-30T20:10:08.144932,1372380,-5525,351,-640,-11,-268,92,13,431,-189
270,2,2022-09-30T20:10:08.158197,1372393,-5518,354,-642,-42,-234,53,13,431,-189
271,2,2022-09-30T20:10:08.172881,1372406,-5537,347,-641,-68,-160,8,15,429,-197
272,2,2022-09-30T20:10:08.183877,1372419,-5537,347,-641,-68,-160,8,15,429,-197
273,2,2022-09-30T20:10:08.193004,1372428,-5550,339,-641,-72,-165,-40,15,429,-197
274,2,2022-09-30T20:10:08.201203,1372437,-5550,339,-641,-72,-165,-40,15,429,-197
275,2,2022-09-30T20:10:08.212030,1372447,-5541,340,-638,-67,-242,-83,15,429,-197
276,2,2022-09-30T20:10:08.224102,1372459,-5541,340,-638,-67,-242,-83,15,429,-197
277,2,2022-09-30T20:10:08.235234,1372469,-5530,345,-639,-25,-284,-75,15,429,-197
278,2,2022-09-30T20:10:08.247309,1372481,-5528,346,-630,-20,-270,-34,15,429,-197
279,2,2022-09-30T20:10:08.256342,1372491,-5528,346,-630,-20,-270,-34,15,429,-197
280,2,2022-09-30T20:10:08.264779,1372500,-5529,343,-634,1,-243,1,15,429,-197
281,2,2022-09-30T20:10:08.272169,1372507,-5529,343,-634,1,-243,1,15,429,-197
282,2,2022-09-30T20:10:08.282634,1372518,-5529,343,-634,1,-243,1,15,429,-197
283,2,2022-09-30T20:10:08.291640,1372527,-5531,350,-633,2,-210,13,15,429,-197
284,2,2022-09-30T20:10:08.298035,1372533,-5531,350,-633,2,-210,13,15,429,-197
285,2,2022-09-30T20:10:08.304411,1372539,-5531,350,-633,2,-210,13,15,429,-197
286,2,2022-09-30T20:10:08.312260,1372547,-5533,357,-629,-14,-191,-19,12,430,-190
287,2,2022-09-30T20:10:08.321093,1372556,-5533,357,-629,-14,-191,-19,12,430,-190
288,2,2022-09-30T20:10:08.331289,1372566,-5528,359,-635,-52,-173,-53,12,430,-190
289,2,2022-09-30T20:10:08.338438,1372574,-5528,359,-635,-52,-173,-53,12,430,-190
290,2,2022-09-30T20:10:08.346376,1372580,-5536,356,-641,-123,-117,-69,12,430,-190
291,2,2022-09-30T20:10:08.353375,1372589,-5536,356,-641,-123,-117,-69,12,430,-190
292,2,2022-09-30T20:10:08.363386,1372599,-5536,356,-641,-123,-117,-69,12,430,-190
293,2,2022-09-30T20:10:08.374320,1372607,-5525,353,-642,-212,-81,-106,12,430,-190
294,2,2022-09-30T20:10:08.385833,1372620,-5531,352,-649,-280,-52,-138,12,430,-190
295,2,2022-09-30T20:10:08.401081,1372633,-5531,352,-649,-280,-52,-138,12,430,-190
296,2,2022-09-30T20:10:08.409913,1372645,-5540,345,-647,-342,-50,-166,12,430,-190
297,2,2022-09-30T20:10:08.422796,1372657,-5540,345,-647,-342,-50,-166,12,430,-190
298,2,2022-09-30T20:10:08.433761,1372668,-5544,332,-650,-334,-106,-173,19,421,-187
299,2,2022-09-30T20:10:08.446058,1372681,-5542,329,-650,-284,-142,-149,19,421,-187
300,2,2022-09-30T20:10:08.458096,1372694,-5542,329,-650,-284,-142,-149,19,421,-187
301,2,2022-09-30T20:10:08.469752,1372704,-5537,332,-651,-215,-176,-106,19,421,-187
302,2,2022-09-30T20:10:08.483523,1372719,-5537,332,-651,-215,-176,-106,19,421,-187
303,2,2022-09-30T20:10:08.492244,1372727,-5536,330,-649,-158,-195,-63,19,421,-187
304,2,2022-09-30T20:10:08.506488,1372741,-5537,336,-645,-117,-223,-46,19,421,-187
305,2,2022-09-30T20:10:08.519583,1372754,-5537,336,-645,-117,-223,-46,19,421,-187
306,2,2022-09-30T20:10:08.535750,1372769,-5537,340,-644,-86,-238,-31,19,421,-187
307,2,2022-09-30T20:10:08.544116,1372779,-5537,340,-644,-86,-238,-31,19,421,-187
308,2,2022-09-30T20:10:08.553849,1372789,-5537,342,-637,-73,-260,-35,14,424,-196
309,2,2022-09-30T20:10:08.564764,1372800,-5537,342,-637,-73,-260,-35,14,424,-196
310,2,2022-09-30T20:10:08.574074,1372809,-5534,342,-640,-55,-273,-31,14,424,-196
311,2,2022-09-30T20:10:08.586678,1372822,-5536,344,-637,-81,-263,-48,14,424,-196
312,2,2022-09-30T20:10:08.598523,1372833,-5536,344,-637,-81,-263,-48,14,424,-196
313,2,2022-09-30T20:10:08.608774,1372844,-5531,344,-640,-123,-262,-74,14,424,-196
314,2,2022-09-30T20:10:08.620728,1372855,-5531,344,-640,-123,-262,-74,14,424,-196
315,2,2022-09-30T20:10:08.630728,1372866,-5529,344,-635,-185,-245,-75,14,424,-196
316,2,2022-09-30T20:10:08.639109,1372874,-5529,344,-635,-185,-245,-75,14,424,-196
317,2,2022-09-30T20:10:08.647687,1372882,-5525,345,-640,-213,-213,-36,14,424,-196
318,2,2022-09-30T20:10:08.655988,1372892,-5525,345,-640,-213,-213,-36,14,424,-196
319,2,2022-09-30T20:10:08.663350,1372898,-5525,345,-640,-213,-213,-36,14,424,-196
320,2,2022-09-30T20:10:08.675584,1372908,-5529,341,-641,-241,-182,23,23,423,-193
321,2,2022-09-30T20:10:08.686113,1372921,-5536,341,-641,-253,-174,63,23,423,-193
322,2,2022-09-30T20:10:08.698088,1372933,-5536,341,-641,-253,-174,63,23,423,-193
323,2,2022-09-30T20:10:08.707089,1372942,-5538,347,-642,-270,-179,75,23,423,-193
324,2,2022-09-30T20:10:08.717886,1372953,-5538,347,-642,-270,-179,75,23,423,-193
325,2,2022-09-30T20:10:08.727418,1372962,-5536,342,-641,-264,-198,70,23,423,-193
326,2,2022-09-30T20:10:08.738822,1372974,-5536,342,-641,-264,-198,70,23,423,-193
327,2,2022-09-30T20:10:08.750443,1372985,-5527,343,-649,-222,-205,37,23,423,-193
328,2,2022-09-30T20:10:08.761117,1372996,-5527,343,-649,-222,-205,37,23,423,-193
329,2,2022-09-30T20:10:08.771168,1373005,-5532,346,-650,-177,-191,15,23,423,-193
330,2,2022-09-30T20:10:08.782218,1373018,-5532,346,-650,-177,-191,15,23,423,-193
331,2,2022-09-30T20:10:08.788373,1373024,-5537,351,-649,-158,-185,7,15,417,-199
332,2,2022-09-30T20:10:08.794646,1373030,-5537,351,-649,-158,-185,7,15,417,-199
333,2,2022-09-30T20:10:08.802160,1373037,-5537,351,-649,-158,-185,7,15,417,-199
334,2,2022-09-30T20:10:08.810664,1373046,-5537,355,-641,-154,-205,4,15,417,-199
335,2,2022-09-30T20:10:08.818979,1373053,-5537,355,-641,-154,-205,4,15,417,-199
336,2,2022-09-30T20:10:08.829215,1373064,-5540,352,-644,-150,-254,8,15,417,-199
337,2,2022-09-30T20:10:08.841012,1373076,-5540,352,-644,-150,-254,8,15,417,-199
338,2,2022-09-30T20:10:08.849824,1373085,-5536,350,-645,-128,-265,6,15,417,-199
339,2,2022-09-30T20:10:08.858174,1373093,-5536,350,-645,-128,-265,6,15,417,-199
340,2,2022-09-30T20:10:08.867720,1373103,-5535,349,-638,-88,-267,1,15,417,-199
341,2,2022-09-30T20:10:08.874571,1373110,-5535,349,-638,-88,-267,1,15,417,-199
342,2,2022-09-30T20:10:08.884191,1373120,-5535,349,-638,-88,-267,1,15,417,-199
343,2,2022-09-30T20:10:08.891852,1373127,-5530,355,-641,-81,-261,-23,15,417,-199
344,2,2022-09-30T20:10:08.902436,1373137,-5530,355,-641,-81,-261,-23,15,417,-199
345,2,2022-09-30T20:10:08.909375,1373145,-5536,358,-643,-97,-242,-33,15,417,-199
346,2,2022-09-30T20:10:08.921213,1373155,-5536,358,-643,-97,-242,-33,15,417,-199
347,2,2022-09-30T20:10:08.932493,1373168,-5534,359,-637,-112,-246,-29,12,426,-194
348,2,2022-09-30T20:10:08.938738,1373174,-5534,359,-637,-112,-246,-29,12,426,-194
349,2,2022-09-30T20:10:08.949229,1373184,-5515,354,-645,-138,-257,-54,12,426,-194
350,2,2022-09-30T20:10:08.960054,1373195,-5515,354,-645,-138,-257,-54,12,426,-194
351,2,2022-09-30T20:10:08.968931,1373204,-5531,356,-644,-164,-207,-100,12,426,-194
352,2,2022-09-30T20:10:08.981927,1373217,-5531,356,-644,-164,-207,-100,12,426,-194
353,2,2022-09-30T20:10:08.990290,1373225,-5546,347,-641,-182,-177,-139,12,426,-194
354,2,2022-09-30T20:10:09.001181,1373237,-5546,347,-641,-182,-177,-139,12,426,-194
355,2,2022-09-30T20:10:09.009455,1373245,-5546,345,-636,-192,-219,-106,12,426,-194
356,2,2022-09-30T20:10:09.017950,1373253,-5546,345,-636,-192,-219,-106,12,426,-194
357,2,2022-09-30T20:10:09.025122,1373260,-5546,345,-636,-192,-219,-106,12,426,-194
358,2,2022-09-30T20:10:09.031328,1373266,-5535,348,-643,-144,-278,-15,12,426,-194
359,2,2022-09-30T20:10:09.041219,1373277,-5535,348,-643,-144,-278,-15,12,426,-194
360,2,2022-09-30T20:10:09.050984,1373285,-5529,354,-637,-80,-287,93,14,428,-190
361,2,2022-09-30T20:10:09.058689,1373294,-5529,354,-637,-80,-287,93,14,428,-190
362,2,2022-09-30T20:10:09.066235,1373302,-5529,361,-639,-37,-283,157,14,428,-190
363,2,2022-09-30T20:10:09.073544,1373307,-5529,361,-639,-37,-283,157,14,428,-190
364,2,2022-09-30T20:10:09.083311,1373318,-5529,361,-639,-37,-283,157,14,428,-190
365,2,2022-09-30T20:10:09.092398,1373328,-5530,368,-643,-36,-260,150,14,428,-190
366,2,2022-09-30T20:10:09.109817,1373345,-5533,368,-637,-30,-256,113,14,428,-190
367,2,2022-09-30T20:10:09.116068,1373351,-5533,368,-637,-30,-256,113,14,428,-190
368,2,2022-09-30T20:10:09.122879,1373358,-5533,368,-637,-30,-256,113,14,428,-190
369,2,2022-09-30T20:10:09.129655,1373365,-5535,366,-638,-40,-259,56,14,428,-190
370,2,2022-09-30T20:10:09.140530,1373376,-5535,366,-638,-40,-259,56,14,428,-190
371,2,2022-09-30T20:10:09.149499,1373384,-5545,365,-639,-42,-256,-22,14,428,-190
372,2,2022-09-30T20:10:09.160700,1373396,-5545,365,-639,-42,-256,-22,14,428,-190
373,2,2022-09-30T20:10:09.171780,1373405,-5545,365,-639,-42,-256,-22,10,430,-190
374,2,2022-09-30T20:10:09.182928,1373418,-5545,365,-639,-42,-256,-22,10,430,-190
375,2,2022-09-30T20:10:09.193788,1373429,-5529,368,-637,-66,-216,-170,10,430,-190
376,2,2022-09-30T20:10:09.205421,1373441,-5529,368,-637,-66,-216,-170,10,430,-190
377,2,2022-09-30T20:10:09.215678,1373452,-5538,367,-638,-104,-163,-212,10,430,-190
378,2,2022-09-30T20:10:09.228902,1373464,-5537,352,-640,-153,-185,-214,10,430,-190
379,2,2022-09-30T20:10:09.239180,1373474,-5537,352,-640,-153,-185,-214,10,430,-190
380,2,2022-09-30T20:10:09.248433,1373484,-5544,345,-636,-145,-218,-214,10,430,-190
381,2,2022-09-30T20:10:09.257770,1373492,-5544,345,-636,-145,-218,-214,10,430,-190
382,2,2022-09-30T20:10:09.266759,1373502,-5534,345,-639,-91,-232,-190,10,430,-190
383,2,2022-09-30T20:10:09.273320,1373508,-5534,345,-639,-91,-232,-190,10,430,-190
384,2,2022-09-30T20:10:09.282547,1373517,-5534,345,-639,-91,-232,-190,10,430,-190
385,2,2022-09-30T20:10:09.289063,1373524,-5527,351,-634,-41,-209,-164,9,425,-191
386,2,2022-09-30T20:10:09.300721,1373536,-5527,351,-634,-41,-209,-164,9,425,-191
387,2,2022-09-30T20:10:09.309276,1373544,-5533,356,-631,-23,-179,-140,9,425,-191
388,2,2022-09-30T20:10:09.317608,1373553,-5533,356,-631,-23,-179,-140,9,425,-191
389,2,2022-09-30T20:10:09.324765,1373559,-5533,356,-631,-23,-179,-140,9,425,-191
390,2,2022-09-30T20:10:09.335003,1373571,-5533,359,-636,-65,-169,-101,9,425,-191
391,2,2022-09-30T20:10:09.343261,1373579,-5533,359,-636,-65,-169,-101,9,425,-191
392,2,2022-09-30T20:10:09.352593,1373588,-5540,361,-639,-121,-185,-54,9,425,-191
393,2,2022-09-30T20:10:09.364749,1373600,-5540,361,-639,-121,-185,-54,9,425,-191
394,2,2022-09-30T20:10:09.373511,1373608,-5538,356,-633,-134,-217,-29,9,425,-191
395,2,2022-09-30T20:10:09.381684,1373617,-5538,356,-633,-134,-217,-29,9,425,-191
396,2,2022-09-30T20:10:09.391123,1373626,-5528,351,-640,-121,-213,-50,9,425,-191
397,2,2022-09-30T20:10:09.397400,1373632,-5528,351,-640,-121,-213,-50,9,425,-191
398,2,2022-09-30T20:10:09.406178,1373641,-5529,355,-635,-93,-184,-72,17,427,-187
399,2,2022-09-30T20:10:09.421712,1373650,-5529,355,-635,-93,-184,-72,17,427,-187
400,2,2022-09-30T20:10:09.431341,1373666,-5533,357,-630,-63,-144,-69,17,427,-187
401,2,2022-09-30T20:10:09.439487,1373675,-5533,357,-630,-63,-144,-69,17,427,-187
402,2,2022-09-30T20:10:09.449195,1373684,-5532,358,-634,-78,-122,-52,17,427,-187
403,2,2022-09-30T20:10:09.457534,1373692,-5532,358,-634,-78,-122,-52,17,427,-187
404,2,2022-09-30T20:10:09.464326,1373700,-5532,358,-634,-78,-122,-52,17,427,-187
405,2,2022-09-30T20:10:09.472833,1373708,-5533,359,-637,-112,-103,-49,17,427,-187
406,2,2022-09-30T20:10:09.484222,1373719,-5533,359,-637,-112,-103,-49,17,427,-187
407,2,2022-09-30T20:10:09.493698,1373729,-5529,359,-640,-140,-94,-68,17,427,-187
408,2,2022-09-30T20:10:09.510664,1373745,-5529,360,-645,-169,-77,-90,17,427,-187
409,2,2022-09-30T20:10:09.521546,1373757,-5529,360,-645,-169,-77,-90,17,427,-187
410,2,2022-09-30T20:10:09.530909,1373766,-5527,362,-648,-207,-56,-93,17,427,-187
411,2,2022-09-30T20:10:09.541975,1373777,-5527,362,-648,-207,-56,-93,17,427,-187
412,2,2022-09-30T20:10:09.549299,1373784,-5536,359,-639,-230,-52,-62,12,424,-190
413,2,2022-09-30T20:10:09.560188,1373795,-5536,359,-639,-230,-52,-62,12,424,-190
414,2,2022-09-30T20:10:09.571402,1373805,-5544,353,-643,-235,-83,-42,12,424,-190
415,2,2022-09-30T20:10:09.579744,1373815,-5544,353,-643,-235,-83,-42,12,424,-190
416,2,2022-09-30T20:10:09.585872,1373821,-5534,357,-644,-215,-119,-52,12,424,-190
417,2,2022-09-30T20:10:09.593402,1373829,-5534,357,-644,-215,-119,-52,12,424,-190
418,2,2022-09-30T20:10:09.599692,1373836,-5534,357,-644,-215,-119,-52,12,424,-190
419,2,2022-09-30T20:10:09.611628,1373841,-5517,366,-651,-187,-86,-22,12,424,-190
420,2,2022-09-30T20:10:09.617833,1373853,-5517,366,-651,-187,-86,-22,12,424,-190
421,2,2022-09-30T20:10:09.630014,1373865,-5532,364,-650,-196,-39,22,12,424,-190
422,2,2022-09-30T20:10:09.640252,1373876,-5532,364,-650,-196,-39,22,12,424,-190
423,2,2022-09-30T20:10:09.649340,1373885,-5549,366,-657,-234,-52,-9,12,424,-190
424,2,2022-09-30T20:10:09.662022,1373897,-5549,366,-657,-234,-52,-9,12,424,-190
425,2,2022-09-30T20:10:09.671293,1373906,-5550,364,-652,-249,-96,-56,11,425,-187
426,2,2022-09-30T20:10:09.684480,1373920,-5550,364,-652,-249,-96,-56,11,425,-187
427,2,2022-09-30T20:10:09.695033,1373930,-5541,356,-656,-234,-170,-55,11,425,-187
428,2,2022-09-30T20:10:09.708490,1373944,-5532,356,-657,-171,-213,-10,11,425,-187
429,2,2022-09-30T20:10:09.715032,1373950,-5532,356,-657,-171,-213,-10,11,425,-187
430,2,2022-09-30T20:10:09.722953,1373957,-5532,356,-657,-171,-213,-10,11,425,-187
431,2,2022-09-30T20:10:09.736320,1373971,-5536,358,-656,-85,-225,44,11,425,-187
432,2,2022-09-30T20:10:09.747297,1373982,-5534,364,-653,-19,-224,32,11,425,-187
433,2,2022-09-30T20:10:09.759703,1373995,-5534,364,-653,-19,-224,32,11,425,-187
434,2,2022-09-30T20:10:09.772324,1374007,-5531,375,-649,4,-218,-21,11,425,-187
435,2,2022-09-30T20:10:09.785073,1374020,-5531,375,-649,4,-218,-21,11,425,-187
436,2,2022-09-30T20:10:09.791950,1374027,-5530,377,-650,-5,-194,-34,13,431,-185
437,2,2022-09-30T20:10:09.803653,1374039,-5530,377,-650,-5,-194,-34,13,431,-185
438,2,2022-09-30T20:10:09.812325,1374048,-5535,364,-649,3,-167,-24,13,431,-185
439,2,2022-09-30T20:10:09.823341,1374058,-5535,364,-649,3,-167,-24,13,431,-185
440,2,2022-09-30T20:10:09.836130,1374071,-5529,373,-655,19,-174,-62,13,431,-185
441,2,2022-09-30T20:10:09.844650,1374081,-5529,373,-655,19,-174,-62,13,431,-185
442,2,2022-09-30T20:10:09.852926,1374088,-5528,380,-657,-19,-138,-122,13,431,-185
443,2,2022-09-30T20:10:09.861043,1374096,-5528,380,-657,-19,-138,-122,13,431,-185
444,2,2022-09-30T20:10:09.871465,1374106,-5537,378,-654,-123,-104,-167,13,431,-185
445,2,2022-09-30T20:10:09.880628,1374115,-5537,378,-654,-123,-104,-167,13,431,-185
446,2,2022-09-30T20:10:09.891230,1374127,-5542,364,-656,-219,-123,-183,13,431,-185
447,2,2022-09-30T20:10:09.900183,1374135,-5542,364,-656,-219,-123,-183,13,431,-185
448,2,2022-09-30T20:10:09.907459,1374143,-5538,356,-656,-254,-183,-208,20,420,-194
449,2,2022-09-30T20:10:09.917030,1374149,-5538,356,-656,-254,-183,-208,20,420,-194
450,2,2022-09-30T20:10:09.928199,1374163,-5532,349,-657,-248,-213,-205,20,420,-194
451,2,2022-09-30T20:10:09.939812,1374174,-5532,349,-657,-248,-213,-205,20,420,-194
452,2,2022-09-30T20:10:09.953048,1374188,-5528,351,-650,-212,-191,-173,20,420,-194
453,2,2022-09-30T20:10:09.963966,1374199,-5528,351,-650,-212,-191,-173,20,420,-194
454,2,2022-09-30T20:10:09.975677,1374210,-5531,352,-653,-170,-171,-124,20,420,-194
455,2,2022-09-30T20:10:09.987583,1374223,-5537,351,-656,-155,-184,-88,20,420,-194
456,2,2022-09-30T20:10:09.999780,1374234,-5537,351,-656,-155,-184,-88,20,420,-194
457,2,2022-09-30T20:10:10.014560,1374251,-5539,358,-656,-181,-209,-61,20,420,-194
458,2,2022-09-30T20:10:10.024836,1374259,-5539,358,-656,-181,-209,-61,20,420,-194
459,2,2022-09-30T20:10:10.033804,1374269,-5532,358,-653,-202,-225,-59,16,428,-188
460,2,2022-09-30T20:10:10.044723,1374280,-5532,358,-653,-202,-225,-59,16,428,-188
461,2,2022-09-30T20:10:10.059098,1374295,-5538,352,-654,-198,-220,-30,16,428,-188
462,2,2022-09-30T20:10:10.070035,1374305,-5538,356,-650,-168,-227,-17,16,428,-188
463,2,2022-09-30T20:10:10.085233,1374320,-5538,356,-650,-168,-227,-17,16,428,-188
464,2,2022-09-30T20:10:10.102624,1374331,-5535,363,-653,-157,-238,-26,16,428,-188
465,2,2022-09-30T20:10:10.114606,1374350,-5535,359,-653,-157,-249,-49,16,428,-188
466,2,2022-09-30T20:10:10.129160,1374364,-5533,360,-652,-157,-262,-71,16,428,-188
467,2,2022-09-30T20:10:10.141180,1374375,-5533,360,-652,-157,-262,-71,16,428,-188
468,2,2022-09-30T20:10:10.153273,1374389,-5528,361,-647,-157,-255,-82,16,428,-188
469,2,2022-09-30T20:10:10.160863,1374397,-5528,361,-647,-157,-255,-82,16,428,-188
470,2,2022-09-30T20:10:10.169614,1374405,-5532,359,-645,-166,-243,-94,20,428,-194
471,2,2022-09-30T20:10:10.181846,1374417,-5532,359,-645,-166,-243,-94,20,428,-194
472,2,2022-09-30T20:10:10.190841,1374427,-5532,360,-649,-165,-224,-90,20,428,-194
473,2,2022-09-30T20:10:10.200567,1374435,-5532,360,-649,-165,-224,-90,20,428,-194
474,2,2022-09-30T20:10:10.214303,1374450,-5533,361,-650,-176,-219,-69,20,428,-194
475,2,2022-09-30T20:10:10.223111,1374458,-5533,361,-650,-176,-219,-69,20,428,-194
476,2,2022-09-30T20:10:10.228996,1374465,-5535,360,-652,-186,-222,-49,20,428,-194
477,2,2022-09-30T20:10:10.240967,1374473,-5535,360,-652,-186,-222,-49,20,428,-194
478,2,2022-09-30T20:10:10.249032,1374485,-5532,360,-657,-207,-229,-26,20,428,-194
479,2,2022-09-30T20:10:10.258224,1374494,-5532,360,-657,-207,-229,-26,20,428,-194
480,2,2022-09-30T20:10:10.264206,1374499,-5532,360,-657,-207,-229,-26,20,428,-194
481,2,2022-09-30T20:10:10.271992,1374507,-5535,363,-655,-205,-248,-18,20,428,-194
482,2,2022-09-30T20:10:10.279131,1374515,-5535,363,-655,-205,-248,-18,20,428,-194
483,2,2022-09-30T20:10:10.287608,1374523,-5532,363,-652,-174,-259,-16,21,423,-189
484,2,2022-09-30T20:10:10.294244,1374530,-5532,363,-652,-174,-259,-16,21,423,-189
485,2,2022-09-30T20:10:10.310909,1374541,-5532,363,-652,-174,-259,-16,21,423,-189
486,2,2022-09-30T20:10:10.317181,1374553,-5534,367,-649,-160,-256,-7,21,423,-189
487,2,2022-09-30T20:10:10.326814,1374563,-5538,372,-656,-160,-263,-12,21,423,-189
488,2,2022-09-30T20:10:10.337170,1374572,-5538,372,-656,-160,-263,-12,21,423,-189
489,2,2022-09-30T20:10:10.346185,1374581,-5538,372,-656,-160,-263,-12,21,423,-189
490,2,2022-09-30T20:10:10.360890,1374597,-5536,371,-648,-176,-270,-26,21,423,-189
491,2,2022-09-30T20:10:10.372996,1374607,-5531,370,-652,-182,-297,-56,21,423,-189
492,2,2022-09-30T20:10:10.383095,1374618,-5531,370,-652,-182,-297,-56,21,423,-189
493,2,2022-09-30T20:10:10.391629,1374627,-5530,370,-649,-185,-297,-79,21,423,-189
494,2,2022-09-30T20:10:10.399948,1374633,-5530,370,-649,-185,-297,-79,21,423,-189
495,2,2022-09-30T20:10:10.407142,1374642,-5530,370,-649,-185,-297,-79,21,423,-189
496,2,2022-09-30T20:10:10.416918,1374653,-5531,373,-646,-185,-287,-93,12,426,-188
497,2,2022-09-30T20:10:10.433718,1374668,-5534,372,-651,-189,-261,-97,12,426,-188
498,2,2022-09-30T20:10:10.446115,1374682,-5534,372,-651,-189,-261,-97,12,426,-188
499,2,2022-09-30T20:10:10.455181,1374691,-5527,377,-646,-213,-222,-90,12,426,-188
500,2,2022-09-30T20:10:10.466689,1374702,-5515,378,-650,-233,-202,-70,12,426,-188
501,2,2022-09-30T20:10:10.481964,1374717,-5515,378,-650,-233,-202,-70,12,426,-188
502,2,2022-09-30T20:10:10.492896,1374728,-5526,371,-654,-263,-156,-65,12,426,-188
503,2,2022-09-30T20:10:10.505262,1374741,-5526,371,-654,-263,-156,-65,12,426,-188
504,2,2022-09-30T20:10:10.511491,1374747,-5552,368,-653,-282,-119,-86,12,426,-188
505,2,2022-09-30T20:10:10.522935,1374755,-5552,368,-653,-282,-119,-86,12,426,-188
506,2,2022-09-30T20:10:10.533211,1374769,-5557,366,-649,-260,-187,-101,17,423,-185
507,2,2022-09-30T20:10:10.541456,1374777,-5557,366,-649,-260,-187,-101,17,423,-185
508,2,2022-09-30T20:10:10.551826,1374787,-5538,361,-649,-182,-295,-127,17,423,-185
509,2,2022-09-30T20:10:10.563394,1374799,-5538,361,-649,-182,-295,-127,17,423,-185
510,2,2022-09-30T20:10:10.575619,1374810,-5538,361,-649,-182,-295,-127,17,423,-185
511,2,2022-09-30T20:10:10.583478,1374819,-5538,361,-649,-182,-295,-127,17,423,-185
512,2,2022-09-30T20:10:10.592267,1374828,-5530,370,-647,9,-307,-99,17,423,-185
513,2,2022-09-30T20:10:10.603202,1374839,-5530,370,-647,9,-307,-99,17,423,-185
514,2,2022-09-30T20:10:10.612586,1374849,-5534,376,-642,53,-302,-98,17,423,-185
515,2,2022-09-30T20:10:10.629843,1374857,-5534,376,-642,53,-302,-98,17,423,-185
516,2,2022-09-30T20:10:10.635577,1374871,-5533,380,-641,51,-315,-106,17,423,-185
517,2,2022-09-30T20:10:10.641236,1374877,-5533,380,-641,51,-315,-106,17,423,-185
518,2,2022-09-30T20:10:10.649931,1374885,-5528,378,-641,13,-299,-104,13,421,-187
519,2,2022-09-30T20:10:10.660462,1374896,-5528,378,-641,13,-299,-104,13,421,-187
520,2,2022-09-30T20:10:10.669474,1374905,-5533,379,-637,-33,-262,-122,13,421,-187
521,2,2022-09-30T20:10:10.684958,1374921,-5533,379,-637,-33,-262,-122,13,421,-187
522,2,2022-09-30T20:10:10.691142,1374926,-5539,374,-638,-66,-240,-163,13,421,-187
523,2,2022-09-30T20:10:10.706122,1374941,-5539,374,-638,-66,-240,-163,13,421,-187
524,2,2022-09-30T20:10:10.716568,1374952,-5531,369,-637,-103,-239,-212,13,421,-187
525,2,2022-09-30T20:10:10.731712,1374966,-5525,372,-647,-134,-211,-247,13,421,-187
526,2,2022-09-30T20:10:10.742015,1374978,-5525,372,-647,-134,-211,-247,13,421,-187
527,2,2022-09-30T20:10:10.754865,1374990,-5533,362,-643,-162,-184,-260,13,421,-187
528,2,2022-09-30T20:10:10.766883,1374998,-5533,362,-643,-162,-184,-260,13,421,-187
529,2,2022-09-30T20:10:10.774966,1375009,-5541,350,-640,-177,-199,-266,13,421,-187
530,2,2022-09-30T20:10:10.785345,1375021,-5541,350,-640,-177,-199,-266,13,421,-187
531,2,2022-09-30T20:10:10.797437,1375032,-5536,351,-643,-145,-216,-277,20,422,-186
532,2,2022-09-30T20:10:10.805646,1375041,-5536,351,-643,-145,-216,-277,20,422,-186
533,2,2022-09-30T20:10:10.815918,1375051,-5529,360,-639,-121,-190,-273,20,422,-186
534,2,2022-09-30T20:10:10.825791,1375057,-5529,360,-639,-121,-190,-273,20,422,-186
535,2,2022-09-30T20:10:10.836185,1375072,-5532,359,-645,-112,-156,-242,20,422,-186
536,2,2022-09-30T20:10:10.845215,1375080,-5532,359,-645,-112,-156,-242,20,422,-186
537,2,2022-09-30T20:10:10.858927,1375094,-5535,360,-642,-114,-156,-201,20,422,-186
538,2,2022-09-30T20:10:10.871334,1375107,-5533,357,-644,-132,-174,-164,20,422,-186
539,2,2022-09-30T20:10:10.877293,1375113,-5533,357,-644,-132,-174,-164,20,422,-186
540,2,2022-09-30T20:10:10.884483,1375120,-5533,357,-644,-132,-174,-164,20,422,-186
541,2,2022-09-30T20:10:10.895097,1375130,-5538,356,-646,-149,-176,-161,20,422,-186
542,2,2022-09-30T20:10:10.907546,1375143,-5536,355,-650,-155,-172,-187,13,437,-195
543,2,2022-09-30T20:10:10.917033,1375152,-5536,355,-650,-155,-172,-187,13,437,-195
544,2,2022-09-30T20:10:10.928718,1375164,-5534,351,-648,-169,-170,-220,13,437,-195
545,2,2022-09-30T20:10:10.940473,1375176,-5534,351,-648,-169,-170,-220,13,437,-195
546,2,2022-09-30T20:10:10.953063,1375187,-5532,344,-653,-155,-185,-236,13,437,-195
547,2,2022-09-30T20:10:10.964676,1375200,-5532,344,-653,-155,-185,-236,13,437,-195
548,2,2022-09-30T20:10:10.976629,1375211,-5536,342,-652,-137,-200,-228,13,437,-195
549,2,2022-09-30T20:10:10.986026,1375221,-5536,342,-652,-137,-200,-228,13,437,-195
550,2,2022-09-30T20:10:10.995481,1375230,-5530,347,-660,-129,-216,-225,13,437,-195
551,2,2022-09-30T20:10:11.004588,1375240,-5530,347,-660,-129,-216,-225,13,437,-195
552,2,2022-09-30T20:10:11.013339,1375249,-5528,348,-663,-132,-216,-213,13,437,-195
553,2,2022-09-30T20:10:11.021179,1375257,-5528,348,-663,-132,-216,-213,13,437,-195
554,2,2022-09-30T20:10:11.034075,1375269,-5530,348,-658,-142,-227,-165,15,425,-193
555,2,2022-09-30T20:10:11.042663,1375278,-5530,348,-658,-142,-227,-165,15,425,-193
556,2,2022-09-30T20:10:11.056862,1375293,-5532,348,-667,-159,-237,-96,15,425,-193
557,2,2022-09-30T20:10:11.062972,1375299,-5532,348,-667,-159,-237,-96,15,425,-193
558,2,2022-09-30T20:10:11.072110,1375307,-5532,348,-667,-159,-237,-96,15,425,-193
559,2,2022-09-30T20:10:11.086644,1375322,-5532,348,-667,-159,-237,-96,15,425,-193
560,2,2022-09-30T20:10:11.096498,1375332,-5540,359,-678,-159,-281,168,15,425,-193
561,2,2022-09-30T20:10:11.105742,1375341,-5540,359,-678,-159,-281,168,15,425,-193
562,2,2022-09-30T20:10:11.116446,1375352,-5545,364,-676,-105,-360,287,15,425,-193
563,2,2022-09-30T20:10:11.128695,1375364,-5546,367,-671,-40,-417,345,15,425,-193
564,2,2022-09-30T20:10:11.139391,1375375,-5546,367,-671,-40,-417,345,15,425,-193
565,2,2022-09-30T20:10:11.149678,1375385,-5545,368,-662,70,-489,319,16,428,-194
566,2,2022-09-30T20:10:11.159490,1375395,-5545,368,-662,70,-489,319,16,428,-194
567,2,2022-09-30T20:10:11.169360,1375405,-5535,372,-655,183,-553,209,16,428,-194
568,2,2022-09-30T20:10:11.183572,1375419,-5535,372,-655,183,-553,209,16,428,-194
569,2,2022-09-30T20:10:11.194459,1375430,-5538,385,-647,271,-564,70,16,428,-194
570,2,2022-09-30T20:10:11.206518,1375442,-5538,385,-647,271,-564,70,16,428,-194
571,2,2022-09-30T20:10:11.215107,1375451,-5532,384,-636,306,-571,-81,16,428,-194
572,2,2022-09-30T20:10:11.226677,1375461,-5532,384,-636,306,-571,-81,16,428,-194
573,2,2022-09-30T20:10:11.237541,1375473,-5536,379,-631,310,-581,-207,16,428,-194
574,2,2022-09-30T20:10:11.246366,1375481,-5536,379,-631,310,-581,-207,16,428,-194
575,2,2022-09-30T20:10:11.257715,1375494,-5534,374,-623,298,-582,-291,16,428,-194
576,2,2022-09-30T20:10:11.267626,1375502,-5534,374,-623,298,-582,-291,16,428,-194
577,2,2022-09-30T20:10:11.279087,1375515,-5522,377,-621,258,-556,-334,10,422,-186
578,2,2022-09-30T20:10:11.291830,1375527,-5510,373,-617,193,-504,-362,10,422,-186
579,2,2022-09-30T20:10:11.302291,1375536,-5510,373,-617,193,-504,-362,10,422,-186
580,2,2022-09-30T20:10:11.311385,1375547,-5524,366,-617,114,-411,-377,10,422,-186
581,2,2022-09-30T20:10:11.317501,1375553,-5524,366,-617,114,-411,-377,10,422,-186
582,2,2022-09-30T20:10:11.325989,1375560,-5524,366,-617,114,-411,-377,10,422,-186
583,2,2022-09-30T20:10:11.338740,1375575,-5552,358,-612,19,-350,-390,10,422,-186
584,2,2022-09-30T20:10:11.347346,1375583,-5552,358,-612,19,-350,-390,10,422,-186
585,2,2022-09-30T20:10:11.357526,1375593,-5551,346,-615,-35,-373,-365,10,422,-186
586,2,2022-09-30T20:10:11.368215,1375604,-5533,346,-610,-34,-406,-296,10,422,-186
587,2,2022-09-30T20:10:11.376846,1375609,-5533,346,-610,-34,-406,-296,10,422,-186
588,2,2022-09-30T20:10:11.385712,1375622,-5533,346,-610,-34,-406,-296,10,422,-186
589,2,2022-09-30T20:10:11.393796,1375630,-5528,348,-611,6,-394,-192,10,422,-186
590,2,2022-09-30T20:10:11.401215,1375637,-5528,348,-611,6,-394,-192,10,422,-186
591,2,2022-09-30T20:10:11.411177,1375646,-5536,349,-604,41,-381,-115,17,431,-193
592,2,2022-09-30T20:10:11.422343,1375657,-5536,349,-604,41,-381,-115,17,431,-193
593,2,2022-09-30T20:10:11.432716,1375669,-5534,349,-607,67,-383,-108,17,431,-193
594,2,2022-09-30T20:10:11.449978,1375683,-5534,349,-607,67,-383,-108,17,431,-193
595,2,2022-09-30T20:10:11.459514,1375695,-5528,351,-609,70,-369,-151,17,431,-193
596,2,2022-09-30T20:10:11.469394,1375705,-5529,351,-607,70,-332,-194,17,431,-193
597,2,2022-09-30T20:10:11.481457,1375717,-5529,351,-607,70,-332,-194,17,431,-193
598,2,2022-09-30T20:10:11.491382,1375727,-5536,349,-597,45,-305,-230,17,431,-193
599,2,2022-09-30T20:10:11.500085,1375735,-5536,349,-597,45,-305,-230,17,431,-193
600,2,2022-09-30T20:10:11.508178,1375744,-5526,348,-601,-24,-264,-279,17,431,-193
601,2,2022-09-30T20:10:11.514404,1375750,-5526,348,-601,-24,-264,-279,17,431,-193
602,2,2022-09-30T20:10:11.523720,1375758,-5526,348,-601,-24,-264,-279,17,431,-193
603,2,2022-09-30T20:10:11.537458,1375773,-5517,349,-607,-106,-205,-319,14,430,-192
604,2,2022-09-30T20:10:11.551116,1375783,-5523,348,-606,-183,-110,-330,14,430,-192
605,2,2022-09-30T20:10:11.561592,1375797,-5523,348,-606,-183,-110,-330,14,430,-192
606,2,2022-09-30T20:10:11.571660,1375807,-5532,341,-611,-236,-80,-304,14,430,-192
607,2,2022-09-30T20:10:11.579762,1375816,-5532,341,-611,-236,-80,-304,14,430,-192
608,2,2022-09-30T20:10:11.587419,1375823,-5534,334,-611,-269,-111,-284,14,430,-192
609,2,2022-09-30T20:10:11.593918,1375830,-5534,334,-611,-269,-111,-284,14,430,-192
610,2,2022-09-30T20:10:11.604671,1375841,-5534,334,-611,-269,-111,-284,14,430,-192
611,2,2022-09-30T20:10:11.613859,1375850,-5527,335,-620,-273,-86,-242,14,430,-192
612,2,2022-09-30T20:10:11.624772,1375859,-5527,335,-620,-273,-86,-242,14,430,-192
613,2,2022-09-30T20:10:11.637417,1375874,-5527,336,-616,-278,-18,-165,14,430,-192
614,2,2022-09-30T20:10:11.645679,1375881,-5527,336,-616,-278,-18,-165,14,430,-192
615,2,2022-09-30T20:10:11.660752,1375897,-5523,347,-622,-281,29,-103,17,431,-185
616,2,2022-09-30T20:10:11.674340,1375908,-5535,350,-624,-285,44,-39,17,431,-185
617,2,2022-09-30T20:10:11.686169,1375922,-5535,350,-624,-285,44,-39,17,431,-185
618,2,2022-09-30T20:10:11.694356,1375930,-5537,356,-629,-296,40,9,17,431,-185
619,2,2022-09-30T20:10:11.707603,1375941,-5537,356,-629,-296,40,9,17,431,-185
620,2,2022-09-30T20:10:11.714983,1375950,-5541,361,-640,-316,53,1,17,431,-185
621,2,2022-09-30T20:10:11.724466,1375959,-5541,361,-640,-316,53,1,17,431,-185
622,2,2022-09-30T20:10:11.736424,1375972,-5542,363,-642,-337,46,-56,17,431,-185
623,2,2022-09-30T20:10:11.746573,1375982,-5542,363,-642,-337,46,-56,17,431,-185
624,2,2022-09-30T20:10:11.758956,1375994,-5542,360,-644,-320,23,-131,17,431,-185
625,2,2022-09-30T20:10:11.768689,1376005,-5535,365,-646,-291,6,-186,19,423,-187
626,2,2022-09-30T20:10:11.776772,1376011,-5535,365,-646,-291,6,-186,19,423,-187
627,2,2022-09-30T20:10:11.786298,1376022,-5535,365,-646,-291,6,-186,19,423,-187
628,2,2022-09-30T20:10:11.793001,1376028,-5543,365,-652,-256,3,-234,19,423,-187
629,2,2022-09-30T20:10:11.805999,1376040,-5543,365,-652,-256,3,-234,19,423,-187
630,2,2022-09-30T20:10:11.812597,1376048,-5545,363,-653,-245,-33,-297,19,423,-187
631,2,2022-09-30T20:10:11.827419,1376063,-5545,363,-653,-245,-33,-297,19,423,-187
632,2,2022-09-30T20:10:11.836548,1376072,-5541,356,-652,-232,-71,-352,19,423,-187
633,2,2022-09-30T20:10:11.844197,1376079,-5541,356,-652,-232,-71,-352,19,423,-187
634,2,2022-09-30T20:10:11.857169,1376093,-5538,346,-654,-217,-100,-385,19,423,-187
635,2,2022-09-30T20:10:11.868405,1376104,-5533,337,-651,-181,-126,-409,19,423,-187
636,2,2022-09-30T20:10:11.885064,1376120,-5533,337,-651,-181,-126,-409,19,423,-187
637,2,2022-09-30T20:10:11.895304,1376132,-5531,334,-646,-145,-141,-412,17,423,-191
638,2,2022-09-30T20:10:11.908453,1376145,-5527,336,-642,-117,-137,-413,17,423,-191
639,2,2022-09-30T20:10:11.914454,1376150,-5527,336,-642,-117,-137,-413,17,423,-191
640,2,2022-09-30T20:10:11.920160,1376156,-5527,336,-642,-117,-137,-413,17,423,-191
641,2,2022-09-30T20:10:11.931485,1376167,-5532,331,-648,-121,-138,-407,17,423,-191
642,2,2022-09-30T20:10:11.941381,1376178,-5532,331,-648,-121,-138,-407,17,423,-191
643,2,2022-09-30T20:10:11.949193,1376185,-5535,323,-639,-125,-156,-385,17,423,-191
644,2,2022-09-30T20:10:11.965051,1376201,-5535,323,-639,-125,-156,-385,17,423,-191
645,2,2022-09-30T20:10:11.976603,1376212,-5531,318,-642,-106,-188,-348,17,423,-191
646,2,2022-09-30T20:10:11.989041,1376225,-5528,314,-642,-76,-217,-315,17,423,-191
647,2,2022-09-30T20:10:11.995978,1376232,-5528,314,-642,-76,-217,-315,17,423,-191
648,2,2022-09-30T20:10:12.010899,1376246,-5530,313,-639,-37,-232,-268,17,423,-191
649,2,2022-09-30T20:10:12.016456,1376252,-5530,313,-639,-37,-232,-268,17,423,-191
650,2,2022-09-30T20:10:12.023405,1376259,-5530,313,-639,-37,-232,-268,17,423,-191
651,2,2022-09-30T20:10:12.034432,1376270,-5528,320,-640,7,-237,-196,17,423,-191
652,2,2022-09-30T20:10:12.041825,1376278,-5528,320,-640,7,-237,-196,17,423,-191
653,2,2022-09-30T20:10:12.049342,1376285,-5524,321,-637,21,-251,-138,17,423,-191
654,2,2022-09-30T20:10:12.056690,1376291,-5524,321,-637,21,-251,-138,17,423,-191
655,2,2022-09-30T20:10:12.064080,1376301,-5524,321,-637,21,-251,-138,17,423,-191
656,2,2022-09-30T20:10:12.071606,1376308,-5521,322,-635,-3,-214,-114,17,423,-191
657,2,2022-09-30T20:10:12.082809,1376317,-5521,322,-635,-3,-214,-114,17,423,-191
658,2,2022-09-30T20:10:12.092205,1376328,-5537,323,-639,-60,-153,-89,17,423,-191
659,2,2022-09-30T20:10:12.103450,1376335,-5537,323,-639,-60,-153,-89,17,423,-191
660,2,2022-09-30T20:10:12.112809,1376349,-5556,319,-639,-98,-141,-90,17,423,-191
661,2,2022-09-30T20:10:12.124380,1376360,-5556,319,-639,-98,-141,-90,17,423,-191
662,2,2022-09-30T20:10:12.136019,1376372,-5552,314,-637,-87,-217,-65,17,423,-191
663,2,2022-09-30T20:10:12.145438,1376380,-5552,314,-637,-87,-217,-65,17,423,-191
664,2,2022-09-30T20:10:12.155214,1376391,-5541,319,-631,-23,-294,-32,20,416,-190
665,2,2022-09-30T20:10:12.163526,1376399,-5541,319,-631,-23,-294,-32,20,416,-190
666,2,2022-09-30T20:10:12.169092,1376405,-5530,320,-631,79,-304,16,20,416,-190
667,2,2022-09-30T20:10:12.179818,1376415,-5530,320,-631,79,-304,16,20,416,-190
668,2,2022-09-30T20:10:12.189182,1376424,-5531,332,-629,155,-276,45,20,416,-190
669,2,2022-09-30T20:10:12.195654,1376432,-5531,332,-629,155,-276,45,20,416,-190
670,2,2022-09-30T20:10:12.203155,1376440,-5531,332,-629,155,-276,45,20,416,-190
671,2,2022-09-30T20:10:12.209110,1376445,-5538,337,-626,175,-263,19,20,416,-190
672,2,2022-09-30T20:10:12.214572,1376451,-5538,337,-626,175,-263,19,20,416,-190
673,2,2022-09-30T20:10:12.221827,1376458,-5538,337,-626,175,-263,19,20,416,-190
674,2,2022-09-30T20:10:12.229471,1376465,-5532,345,-626,155,-257,-54,20,416,-190
675,2,2022-09-30T20:10:12.235771,1376471,-5532,345,-626,155,-257,-54,20,416,-190
676,2,2022-09-30T20:10:12.242673,1376479,-5532,345,-626,155,-257,-54,20,416,-190
677,2,2022-09-30T20:10:12.249317,1376484,-5526,345,-627,88,-242,-111,20,416,-190
678,2,2022-09-30T20:10:12.256480,1376493,-5526,345,-627,88,-242,-111,20,416,-190
679,2,2022-09-30T20:10:12.263427,1376499,-5526,345,-627,88,-242,-111,20,416,-190
680,2,2022-09-30T20:10:12.268665,1376505,-5523,343,-624,-7,-186,-147,17,429,-195
681,2,2022-09-30T20:10:12.278150,1376514,-5523,343,-624,-7,-186,-147,17,429,-195
682,2,2022-09-30T20:10:12.285217,1376521,-5523,343,-624,-7,-186,-147,17,429,-195
683,2,2022-09-30T20:10:12.292219,1376529,-5518,336,-626,-104,-113,-180,17,429,-195
684,2,2022-09-30T20:10:12.299952,1376535,-5518,336,-626,-104,-113,-180,17,429,-195
685,2,2022-09-30T20:10:12.306173,1376542,-5518,336,-626,-104,-113,-180,17,429,-195
686,2,2022-09-30T20:10:12.312705,1376549,-5524,325,-631,-200,-50,-204,17,429,-195
687,2,2022-09-30T20:10:12.319811,1376556,-5524,325,-631,-200,-50,-204,17,429,-195
688,2,2022-09-30T20:10:12.330844,1376567,-5528,325,-642,-256,9,-211,17,429,-195
689,2,2022-09-30T20:10:12.338152,1376574,-5528,325,-642,-256,9,-211,17,429,-195
690,2,2022-09-30T20:10:12.344964,1376581,-5528,325,-642,-256,9,-211,17,429,-195
691,2,2022-09-30T20:10:12.353666,1376590,-5534,320,-645,-304,19,-211,17,429,-195
692,2,2022-09-30T20:10:12.359586,1376595,-5534,320,-645,-304,19,-211,17,429,-195
693,2,2022-09-30T20:10:12.366789,1376603,-5534,320,-645,-304,19,-211,17,429,-195
694,2,2022-09-30T20:10:12.373619,1376609,-5537,317,-646,-325,-18,-180,17,429,-195
695,2,2022-09-30T20:10:12.380928,1376617,-5537,317,-646,-325,-18,-180,17,429,-195
696,2,2022-09-30T20:10:12.387905,1376624,-5533,319,-644,-329,-57,-140,17,429,-195
697,2,2022-09-30T20:10:12.393873,1376630,-5533,319,-644,-329,-57,-140,18,430,-186
698,2,2022-09-30T20:10:12.402292,1376638,-5533,319,-644,-329,-57,-140,18,430,-186
699,2,2022-09-30T20:10:12.409515,1376646,-5521,315,-652,-293,-48,-65,18,430,-186
700,2,2022-09-30T20:10:12.415303,1376652,-5521,315,-652,-293,-48,-65,18,430,-186
701,2,2022-09-30T20:10:12.423114,1376659,-5521,315,-652,-293,-48,-65,18,430,-186
702,2,2022-09-30T20:10:12.430619,1376667,-5526,317,-658,-242,-16,25,18,430,-186
703,2,2022-09-30T20:10:12.436346,1376672,-5526,317,-658,-242,-16,25,18,430,-186
704,2,2022-09-30T20:10:12.443628,1376679,-5526,317,-658,-242,-16,25,18,430,-186
705,2,2022-09-30T20:10:12.451832,1376686,-5540,329,-660,-202,-26,98,18,430,-186
706,2,2022-09-30T20:10:12.457658,1376694,-5540,329,-660,-202,-26,98,18,430,-186
707,2,2022-09-30T20:10:12.464569,1376701,-5540,329,-660,-202,-26,98,18,430,-186
708,2,2022-09-30T20:10:12.471557,1376707,-5544,332,-657,-171,-63,126,18,430,-186
709,2,2022-09-30T20:10:12.477797,1376713,-5544,332,-657,-171,-63,126,18,430,-186
710,2,2022-09-30T20:10:12.484558,1376720,-5544,332,-657,-171,-63,126,18,430,-186
711,2,2022-09-30T20:10:12.491862,1376728,-5544,336,-665,-150,-110,140,18,430,-186
712,2,2022-09-30T20:10:12.499591,1376735,-5544,336,-665,-150,-110,140,18,430,-186
713,2,2022-09-30T20:10:12.505326,1376742,-5544,336,-665,-150,-110,140,18,430,-186
714,2,2022-09-30T20:10:12.512381,1376749,-5541,338,-658,-109,-162,146,19,423,-185
715,2,2022-09-30T20:10:12.519367,1376755,-5541,338,-658,-109,-162,146,19,423,-185
716,2,2022-09-30T20:10:12.526459,1376762,-5541,338,-658,-109,-162,146,19,423,-185
717,2,2022-09-30T20:10:12.531757,1376769,-5538,339,-653,-56,-201,142,19,423,-185
718,2,2022-09-30T20:10:12.539272,1376775,-5538,339,-653,-56,-201,142,19,423,-185
719,2,2022-09-30T20:10:12.544767,1376781,-5538,339,-653,-56,-201,142,19,423,-185
720,2,2022-09-30T20:10:12.551695,1376787,-5538,341,-658,-5,-237,105,19,423,-185
721,2,2022-09-30T20:10:12.557531,1376793,-5538,341,-658,-5,-237,105,19,423,-185
722,2,2022-09-30T20:10:12.564443,1376800,-5538,341,-658,-5,-237,105,19,423,-185
723,2,2022-09-30T20:10:12.571443,1376807,-5539,350,-658,3,-269,32,19,423,-185
724,2,2022-09-30T20:10:12.578718,1376815,-5539,350,-658,3,-269,32,19,423,-185
725,2,2022-09-30T20:10:12.585603,1376822,-5539,350,-658,3,-269,32,19,423,-185
726,2,2022-09-30T20:10:12.593321,1376829,-5537,354,-652,9,-288,-22,19,423,-185
727,2,2022-09-30T20:10:12.601012,1376837,-5537,354,-652,9,-288,-22,19,423,-185
728,2,2022-09-30T20:10:12.608210,1376844,-5530,346,-653,-5,-304,-65,19,423,-185
729,2,2022-09-30T20:10:12.614062,1376850,-5530,346,-653,-5,-304,-65,19,423,-185
730,2,2022-09-30T20:10:12.621238,1376858,-5530,346,-653,-5,-304,-65,19,423,-185
731,2,2022-09-30T20:10:12.630262,1376867,-5531,344,-645,-28,-278,-95,17,421,-195
732,2,2022-09-30T20:10:12.635702,1376872,-5531,344,-645,-28,-278,-95,17,421,-195
733,2,2022-09-30T20:10:12.642538,1376879,-5531,344,-645,-28,-278,-95,17,421,-195
734,2,2022-09-30T20:10:12.649884,1376885,-5535,343,-641,-41,-239,-118,17,421,-195
735,2,2022-09-30T20:10:12.656103,1376891,-5535,343,-641,-41,-239,-118,17,421,-195
736,2,2022-09-30T20:10:12.662264,1376898,-5535,343,-641,-41,-239,-118,17,421,-195
737,2,2022-09-30T20:10:12.669131,1376906,-5531,347,-644,-69,-224,-125,17,421,-195
738,2,2022-09-30T20:10:12.675170,1376911,-5531,347,-644,-69,-224,-125,17,421,-195
739,2,2022-09-30T20:10:12.682467,1376919,-5531,347,-644,-69,-224,-125,17,421,-195
740,2,2022-09-30T20:10:12.690319,1376926,-5528,346,-647,-94,-213,-119,17,421,-195
741,2,2022-09-30T20:10:12.696691,1376932,-5528,346,-647,-94,-213,-119,17,421,-195
742,2,2022-09-30T20:10:12.705538,1376942,-5528,346,-647,-94,-213,-119,17,421,-195
743,2,2022-09-30T20:10:12.712495,1376949,-5532,339,-650,-116,-205,-115,17,421,-195
744,2,2022-09-30T20:10:12.719822,1376956,-5532,339,-650,-116,-205,-115,17,421,-195
745,2,2022-09-30T20:10:12.727389,1376963,-5532,339,-650,-116,-205,-115,17,421,-195
746,2,2022-09-30T20:10:12.733029,1376969,-5536,325,-657,-85,-210,-83,17,421,-195
747,2,2022-09-30T20:10:12.740334,1376976,-5536,325,-657,-85,-210,-83,17,421,-195
748,2,2022-09-30T20:10:12.747633,1376984,-5536,325,-657,-85,-210,-83,17,421,-195
749,2,2022-09-30T20:10:12.754968,1376991,-5531,315,-653,25,-195,-50,17,421,-195
750,2,2022-09-30T20:10:12.762193,1376999,-5531,315,-653,25,-195,-50,17,421,-195
751,2,2022-09-30T20:10:12.768861,1377005,-5531,318,-646,167,-160,5,23,425,-189
752,2,2022-09-30T20:10:12.774374,1377010,-5531,318,-646,167,-160,5,23,425,-189
753,2,2022-09-30T20:10:12.780911,1377017,-5531,318,-646,167,-160,5,23,425,-189
754,2,2022-09-30T20:10:12.787578,1377025,-5531,318,-646,167,-160,5,23,425,-189
755,2,2022-09-30T20:10:12.792938,1377030,-5545,334,-655,282,-103,79,23,425,-189
756,2,2022-09-30T20:10:12.799739,1377036,-5545,334,-655,282,-103,79,23,425,-189
757,2,2022-09-30T20:10:12.806360,1377043,-5545,334,-655,282,-103,79,23,425,-189
758,2,2022-09-30T20:10:12.811557,1377048,-5554,351,-653,324,-119,153,23,425,-189
759,2,2022-09-30T20:10:12.817910,1377054,-5554,351,-653,324,-119,153,23,425,-189
760,2,2022-09-30T20:10:12.823629,1377059,-5554,351,-653,324,-119,153,23,425,-189
761,2,2022-09-30T20:10:12.830739,1377067,-5546,359,-653,304,-220,191,23,425,-189
762,2,2022-09-30T20:10:12.836432,1377073,-5546,359,-653,304,-220,191,23,425,-189
763,2,2022-09-30T20:10:12.843695,1377080,-5546,359,-653,304,-220,191,23,425,-189
764,2,2022-09-30T20:10:12.850611,1377086,-5529,362,-650,266,-287,160,23,425,-189
765,2,2022-09-30T20:10:12.855992,1377092,-5529,362,-650,266,-287,160,23,425,-189
766,2,2022-09-30T20:10:12.863416,1377099,-5529,362,-650,266,-287,160,23,425,-189
767,2,2022-09-30T20:10:12.871152,1377107,-5520,367,-656,212,-276,23,23,425,-189
768,2,2022-09-30T20:10:12.877898,1377114,-5520,367,-656,212,-276,23,23,425,-189
769,2,2022-09-30T20:10:12.883613,1377120,-5520,367,-656,212,-276,23,23,425,-189
770,2,2022-09-30T20:10:12.891148,1377127,-5550,361,-646,136,-204,-147,19,421,-199
771,2,2022-09-30T20:10:12.897601,1377133,-5550,361,-646,136,-204,-147,19,421,-199
772,2,2022-09-30T20:10:12.907660,1377143,-5550,361,-646,136,-204,-147,19,421,-199
773,2,2022-09-30T20:10:12.915358,1377152,-5549,353,-641,65,-257,-251,19,421,-199
774,2,2022-09-30T20:10:12.923013,1377159,-5549,353,-641,65,-257,-251,19,421,-199
775,2,2022-09-30T20:10:12.931825,1377168,-5540,349,-642,14,-308,-300,19,421,-199
776,2,2022-09-30T20:10:12.940412,1377176,-5540,349,-642,14,-308,-300,19,421,-199
777,2,2022-09-30T20:10:12.949060,1377185,-5533,346,-637,-12,-294,-288,19,421,-199
778,2,2022-09-30T20:10:12.956881,1377192,-5533,346,-637,-12,-294,-288,19,421,-199
779,2,2022-09-30T20:10:12.964048,1377201,-5533,346,-637,-12,-294,-288,19,421,-199
780,2,2022-09-30T20:10:12.969641,1377206,-5524,341,-634,-31,-261,-257,19,421,-199
781,2,2022-09-30T20:10:12.975516,1377212,-5524,341,-634,-31,-261,-257,19,421,-199
782,2,2022-09-30T20:10:12.982561,1377219,-5524,341,-634,-31,-261,-257,19,421,-199
783,2,2022-09-30T20:10:12.992391,1377228,-5523,336,-639,-40,-238,-221,19,421,-199
784,2,2022-09-30T20:10:13.002727,1377236,-5523,336,-639,-40,-238,-221,19,421,-199
785,2,2022-09-30T20:10:13.013600,1377249,-5524,341,-638,-70,-211,-226,22,432,-194
786,2,2022-09-30T20:10:13.022337,1377258,-5524,341,-638,-70,-211,-226,22,432,-194
787,2,2022-09-30T20:10:13.028007,1377264,-5524,341,-638,-70,-211,-226,22,432,-194
788,2,2022-09-30T20:10:13.034179,1377270,-5526,341,-645,-124,-174,-223,22,432,-194
789,2,2022-09-30T20:10:13.041500,1377277,-5526,341,-645,-124,-174,-223,22,432,-194
790,2,2022-09-30T20:10:13.049574,1377286,-5533,338,-649,-206,-142,-221,22,432,-194
791,2,2022-09-30T20:10:13.056727,1377293,-5533,338,-649,-206,-142,-221,22,432,-194
792,2,2022-09-30T20:10:13.061998,1377298,-5533,338,-649,-206,-142,-221,22,432,-194
793,2,2022-09-30T20:10:13.067146,1377303,-5533,338,-649,-206,-142,-221,22,432,-194
794,2,2022-09-30T20:10:13.074333,1377310,-5540,332,-647,-272,-144,-190,22,432,-194
795,2,2022-09-30T20:10:13.086276,1377323,-5540,332,-647,-272,-144,-190,22,432,-194
796,2,2022-09-30T20:10:13.093592,1377330,-5528,326,-652,-291,-166,-137,22,432,-194
797,2,2022-09-30T20:10:13.104721,1377341,-5528,326,-652,-291,-166,-137,22,432,-194
798,2,2022-09-30T20:10:13.109966,1377346,-5531,324,-660,-274,-169,-121,22,432,-194
799,2,2022-09-30T20:10:13.115773,1377352,-5531,324,-660,-274,-169,-121,22,432,-194
800,2,2022-09-30T20:10:13.122811,1377359,-5531,324,-660,-274,-169,-121,22,432,-194
801,2,2022-09-30T20:10:13.133146,1377370,-5544,322,-649,-245,-187,-133,19,427,-185
802,2,2022-09-30T20:10:13.142572,1377379,-5544,322,-649,-245,-187,-133,19,427,-185
803,2,2022-09-30T20:10:13.149681,1377385,-5544,322,-649,-245,-187,-133,19,427,-185
804,2,2022-09-30T20:10:13.156535,1377392,-5542,317,-651,-201,-251,-102,19,427,-185
805,2,2022-09-30T20:10:13.165854,1377402,-5542,317,-651,-201,-251,-102,19,427,-185
806,2,2022-09-30T20:10:13.172374,1377408,-5538,324,-648,-130,-306,-26,19,427,-185
807,2,2022-09-30T20:10:13.179245,1377415,-5538,324,-648,-130,-306,-26,19,427,-185
808,2,2022-09-30T20:10:13.187734,1377424,-5538,324,-648,-130,-306,-26,19,427,-185
809,2,2022-09-30T20:10:13.195683,1377431,-5532,325,-653,-64,-355,62,19,427,-185
810,2,2022-09-30T20:10:13.212344,1377448,-5541,334,-649,-19,-409,120,19,427,-185
811,2,2022-09-30T20:10:13.222918,1377458,-5541,334,-649,-19,-409,120,19,427,-185
812,2,2022-09-30T20:10:13.236108,1377472,-5537,341,-643,14,-432,145,19,427,-185
813,2,2022-09-30T20:10:13.244021,1377480,-5537,341,-643,14,-432,145,19,427,-185
814,2,2022-09-30T20:10:13.250441,1377486,-5531,343,-640,29,-443,116,14,424,-188
815,2,2022-09-30T20:10:13.257256,1377494,-5531,343,-640,29,-443,116,14,424,-188
816,2,2022-09-30T20:10:13.266069,1377502,-5531,343,-640,29,-443,116,14,424,-188
817,2,2022-09-30T20:10:13.273008,1377508,-5528,352,-629,24,-411,68,14,424,-188
818,2,2022-09-30T20:10:13.283458,1377519,-5528,352,-629,24,-411,68,14,424,-188
819,2,2022-09-30T20:10:13.293023,1377529,-5531,357,-637,-13,-376,16,14,424,-188
820,2,2022-09-30T20:10:13.302108,1377537,-5531,357,-637,-13,-376,16,14,424,-188
821,2,2022-09-30T20:10:13.311854,1377548,-5531,353,-630,-54,-348,-38,14,424,-188
822,2,2022-09-30T20:10:13.318020,1377554,-5531,353,-630,-54,-348,-38,14,424,-188
823,2,2022-09-30T20:10:13.326314,1377560,-5531,353,-630,-54,-348,-38,14,424,-188
824,2,2022-09-30T20:10:13.337348,1377573,-5528,354,-635,-118,-290,-89,14,424,-188
825,2,2022-09-30T20:10:13.345131,1377581,-5528,354,-635,-118,-290,-89,14,424,-188
826,2,2022-09-30T20:10:13.357050,1377593,-5526,351,-636,-192,-221,-128,14,424,-188
827,2,2022-09-30T20:10:13.369530,1377605,-5526,351,-636,-192,-221,-128,14,424,-188
828,2,2022-09-30T20:10:13.379810,1377615,-5525,347,-639,-259,-158,-136,14,424,-188
829,2,2022-09-30T20:10:13.387555,1377624,-5525,347,-639,-259,-158,-136,14,424,-188
830,2,2022-09-30T20:10:13.393522,1377630,-5534,342,-642,-296,-119,-124,20,424,-194
831,2,2022-09-30T20:10:13.408285,1377644,-5534,342,-642,-296,-119,-124,20,424,-194
832,2,2022-09-30T20:10:13.417521,1377653,-5536,344,-647,-304,-99,-103,20,424,-194
833,2,2022-09-30T20:10:13.427641,1377664,-5536,344,-647,-304,-99,-103,20,424,-194
834,2,2022-09-30T20:10:13.436624,1377673,-5543,340,-647,-306,-116,-102,20,424,-194
835,2,2022-09-30T20:10:13.444055,1377680,-5543,340,-647,-306,-116,-102,20,424,-194
836,2,2022-09-30T20:10:13.452172,1377688,-5544,337,-647,-280,-166,-115,20,424,-194
837,2,2022-09-30T20:10:13.457948,1377694,-5544,337,-647,-280,-166,-115,20,424,-194
838,2,2022-09-30T20:10:13.465890,1377701,-5544,337,-647,-280,-166,-115,20,424,-194
839,2,2022-09-30T20:10:13.475529,1377711,-5539,332,-651,-229,-219,-122,20,424,-194
840,2,2022-09-30T20:10:13.486142,1377722,-5539,332,-651,-229,-219,-122,20,424,-194
841,2,2022-09-30T20:10:13.492024,1377728,-5537,336,-651,-160,-260,-132,20,424,-194
842,2,2022-09-30T20:10:13.498441,1377734,-5537,336,-651,-160,-260,-132,20,424,-194
843,2,2022-09-30T20:10:13.509868,1377746,-5533,336,-642,-106,-289,-132,25,429,-191
844,2,2022-09-30T20:10:13.519986,1377756,-5533,336,-642,-106,-289,-132,25,429,-191
845,2,2022-09-30T20:10:13.535033,1377771,-5525,342,-640,-67,-295,-141,25,429,-191
846,2,2022-09-30T20:10:13.543097,1377779,-5525,342,-640,-67,-295,-141,25,429,-191
847,2,2022-09-30T20:10:13.552911,1377786,-5527,341,-644,-63,-290,-151,25,429,-191
848,2,2022-09-30T20:10:13.561583,1377798,-5527,341,-644,-63,-290,-151,25,429,-191
849,2,2022-09-30T20:10:13.570384,1377807,-5536,337,-639,-86,-289,-141,25,429,-191
850,2,2022-09-30T20:10:13.577713,1377813,-5536,337,-639,-86,-289,-141,25,429,-191
851,2,2022-09-30T20:10:13.587896,1377824,-5536,337,-639,-86,-289,-141,25,429,-191
852,2,2022-09-30T20:10:13.595593,1377831,-5532,335,-637,-103,-282,-120,25,429,-191
853,2,2022-09-30T20:10:13.607083,1377842,-5532,335,-637,-103,-282,-120,25,429,-191
854,2,2022-09-30T20:10:13.617493,1377854,-5512,331,-643,-129,-265,-109,25,429,-191
855,2,2022-09-30T20:10:13.626480,1377861,-5512,331,-643,-129,-265,-109,25,429,-191
856,2,2022-09-30T20:10:13.635593,1377871,-5520,332,-635,-147,-203,-101,19,431,-185
857,2,2022-09-30T20:10:13.647207,1377883,-5520,332,-635,-147,-203,-101,19,431,-185
858,2,2022-09-30T20:10:13.655160,1377891,-5540,330,-637,-178,-151,-85,19,431,-185
859,2,2022-09-30T20:10:13.664457,1377901,-5540,330,-637,-178,-151,-85,19,431,-185
860,2,2022-09-30T20:10:13.678274,1377910,-5552,325,-639,-184,-193,-29,19,431,-185
861,2,2022-09-30T20:10:13.690481,1377927,-5537,328,-638,-127,-281,60,19,431,-185
862,2,2022-09-30T20:10:13.700978,1377934,-5537,328,-638,-127,-281,60,19,431,-185
863,2,2022-09-30T20:10:13.710757,1377947,-5530,333,-640,-30,-324,151,19,431,-185
864,2,2022-09-30T20:10:13.716139,1377952,-5530,333,-640,-30,-324,151,19,431,-185
865,2,2022-09-30T20:10:13.724843,1377959,-5530,333,-640,-30,-324,151,19,431,-185
866,2,2022-09-30T20:10:13.733724,1377970,-5533,342,-634,82,-348,215,19,431,-185
867,2,2022-09-30T20:10:13.742731,1377979,-5533,342,-634,82,-348,215,19,431,-185
868,2,2022-09-30T20:10:13.750457,1377986,-5539,350,-628,169,-372,225,19,425,-195
869,2,2022-09-30T20:10:13.756998,1377993,-5539,350,-628,169,-372,225,19,425,-195
870,2,2022-09-30T20:10:13.765751,1378002,-5539,350,-628,169,-372,225,19,425,-195
871,2,2022-09-30T20:10:13.772390,1378008,-5538,358,-626,214,-372,186,19,425,-195
872,2,2022-09-30T20:10:13.780416,1378016,-5538,358,-626,214,-372,186,19,425,-195
873,2,2022-09-30T20:10:13.788950,1378025,-5538,358,-626,214,-372,186,19,425,-195
874,2,2022-09-30T20:10:13.796960,1378033,-5539,361,-622,232,-370,140,19,425,-195
875,2,2022-09-30T20:10:13.810832,1378046,-5541,359,-614,255,-364,86,19,425,-195
876,2,2022-09-30T20:10:13.819098,1378056,-5541,359,-614,255,-364,86,19,425,-195
877,2,2022-09-30T20:10:13.826567,1378062,-5541,359,-614,255,-364,86,19,425,-195
878,2,2022-09-30T20:10:13.834963,1378071,-5529,347,-611,296,-355,33,19,425,-195
879,2,2022-09-30T20:10:13.840578,1378077,-5529,347,-611,296,-355,33,19,425,-195
880,2,2022-09-30T20:10:13.848159,1378084,-5529,347,-611,296,-355,33,19,425,-195
881,2,2022-09-30T20:10:13.855559,1378092,-5521,352,-612,341,-281,-58,19,425,-195
882,2,2022-09-30T20:10:13.862846,1378099,-5521,352,-612,341,-281,-58,19,425,-195
883,2,2022-09-30T20:10:13.868700,1378105,-5521,352,-612,341,-281,-58,19,425,-195
884,2,2022-09-30T20:10:13.874686,1378110,-5519,362,-616,331,-157,-145,18,420,-190
885,2,2022-09-30T20:10:13.882351,1378118,-5519,362,-616,331,-157,-145,18,420,-190
886,2,2022-09-30T20:10:13.889033,1378125,-5519,362,-616,331,-157,-145,18,420,-190
887,2,2022-09-30T20:10:13.894723,1378131,-5523,354,-613,272,-96,-181,18,420,-190
888,2,2022-09-30T20:10:13.903002,1378139,-5523,354,-613,272,-96,-181,18,420,-190
889,2,2022-09-30T20:10:13.910839,1378147,-5528,340,-618,243,-75,-165,18,420,-190
890,2,2022-09-30T20:10:13.916891,1378153,-5528,340,-618,243,-75,-165,18,420,-190
891,2,2022-09-30T20:10:13.924400,1378160,-5528,340,-618,243,-75,-165,18,420,-190
892,2,2022-09-30T20:10:13.931872,1378168,-5526,336,-623,249,-43,-142,18,420,-190
893,2,2022-09-30T20:10:13.937824,1378173,-5526,336,-623,249,-43,-142,18,420,-190
894,2,2022-09-30T20:10:13.943390,1378180,-5526,336,-623,249,-43,-142,18,420,-190
895,2,2022-09-30T20:10:13.950601,1378187,-5520,333,-627,288,28,-105,18,420,-190
896,2,2022-09-30T20:10:13.956864,1378193,-5520,333,-627,288,28,-105,18,420,-190
897,2,2022-09-30T20:10:13.963645,1378200,-5520,333,-627,288,28,-105,18,420,-190
898,2,2022-09-30T20:10:13.970610,1378207,-5522,336,-634,363,93,-35,18,420,-190
899,2,2022-09-30T20:10:13.976599,1378212,-5522,336,-634,363,93,-35,18,420,-190
900,2,2022-09-30T20:10:13.983559,1378220,-5522,336,-634,363,93,-35,18,420,-190
901,2,2022-09-30T20:10:13.989384,1378226,-5522,336,-634,363,93,-35,18,420,-190
902,2,2022-09-30T20:10:13.995311,1378232,-5533,339,-637,447,108,27,18,420,-190
903,2,2022-09-30T20:10:14.003490,1378239,-5533,339,-637,447,108,27,18,420,-190
904,2,2022-09-30T20:10:14.010467,1378247,-5540,345,-637,517,93,78,25,427,-189
905,2,2022-09-30T20:10:14.016210,1378252,-5540,345,-637,517,93,78,25,427,-189
906,2,2022-09-30T20:10:14.023349,1378259,-5540,345,-637,517,93,78,25,427,-189
907,2,2022-09-30T20:10:14.030820,1378268,-5537,343,-644,587,79,108,25,427,-189
908,2,2022-09-30T20:10:14.036433,1378273,-5537,343,-644,587,79,108,25,427,-189
909,2,2022-09-30T20:10:14.043477,1378280,-5537,343,-644,587,79,108,25,427,-189
910,2,2022-09-30T20:10:14.050445,1378286,-5538,342,-650,695,62,107,25,427,-189
911,2,2022-09-30T20:10:14.056080,1378292,-5538,342,-650,695,62,107,25,427,-189
912,2,2022-09-30T20:10:14.062716,1378299,-5538,342,-650,695,62,107,25,427,-189
913,2,2022-09-30T20:10:14.069506,1378306,-5537,348,-648,818,39,103,25,427,-189
914,2,2022-09-30T20:10:14.075112,1378312,-5537,348,-648,818,39,103,25,427,-189
915,2,2022-09-30T20:10:14.081851,1378319,-5537,348,-648,818,39,103,25,427,-189
916,2,2022-09-30T20:10:14.088643,1378325,-5537,348,-648,818,39,103,25,427,-189
917,2,2022-09-30T20:10:14.093893,1378330,-5544,353,-650,938,34,88,25,427,-189
918,2,2022-09-30T20:10:14.100858,1378337,-5544,353,-650,938,34,88,25,427,-189
919,2,2022-09-30T20:10:14.106161,1378342,-5544,353,-650,938,34,88,25,427,-189
920,2,2022-09-30T20:10:14.111039,1378348,-5544,349,-657,1043,30,65,25,427,-189
921,2,2022-09-30T20:10:14.116282,1378353,-5544,349,-657,1043,30,65,25,427,-189
922,2,2022-09-30T20:10:14.122692,1378359,-5544,349,-657,1043,30,65,25,427,-189
923,2,2022-09-30T20:10:14.129223,1378366,-5544,349,-657,1043,30,65,25,427,-189
924,2,2022-09-30T20:10:14.134038,1378371,-5540,347,-649,1147,17,19,21,427,-191
925,2,2022-09-30T20:10:14.140166,1378377,-5540,347,-649,1147,17,19,21,427,-191
926,2,2022-09-30T20:10:14.146260,1378383,-5540,347,-649,1147,17,19,21,427,-191
927,2,2022-09-30T20:10:14.151938,1378388,-5532,344,-659,1261,-9,-13,21,427,-191
928,2,2022-09-30T20:10:14.157421,1378394,-5532,344,-659,1261,-9,-13,21,427,-191
929,2,2022-09-30T20:10:14.163489,1378400,-5532,344,-659,1261,-9,-13,21,427,-191
930,2,2022-09-30T20:10:14.169840,1378406,-5530,340,-656,1377,-20,-33,21,427,-191
931,2,2022-09-30T20:10:14.175623,1378412,-5530,340,-656,1377,-20,-33,21,427,-191
932,2,2022-09-30T20:10:14.180556,1378417,-5530,340,-656,1377,-20,-33,21,427,-191
933,2,2022-09-30T20:10:14.186537,1378423,-5530,340,-656,1377,-20,-33,21,427,-191
934,2,2022-09-30T20:10:14.191757,1378428,-5534,341,-657,1483,-19,-46,21,427,-191
935,2,2022-09-30T20:10:14.198998,1378435,-5534,341,-657,1483,-19,-46,21,427,-191
936,2,2022-09-30T20:10:14.206247,1378443,-5534,341,-657,1483,-19,-46,21,427,-191
937,2,2022-09-30T20:10:14.213073,1378450,-5533,346,-662,1571,-5,-68,21,427,-191
938,2,2022-09-30T20:10:14.218771,1378455,-5533,346,-662,1571,-5,-68,21,427,-191
939,2,2022-09-30T20:10:14.226364,1378462,-5533,346,-662,1571,-5,-68,21,427,-191
940,2,2022-09-30T20:10:14.233207,1378469,-5531,340,-660,1660,8,-37,21,427,-191
941,2,2022-09-30T20:10:14.242489,1378479,-5531,340,-660,1660,8,-37,21,427,-191
942,2,2022-09-30T20:10:14.251470,1378487,-5534,336,-653,1754,8,11,26,424,-200
943,2,2022-09-30T20:10:14.259032,1378495,-5534,336,-653,1754,8,11,26,424,-200
944,2,2022-09-30T20:10:14.265373,1378502,-5534,336,-653,1754,8,11,26,424,-200
945,2,2022-09-30T20:10:14.271668,1378508,-5535,338,-660,1861,-8,51,26,424,-200
946,2,2022-09-30T20:10:14.281297,1378518,-5535,338,-660,1861,-8,51,26,424,-200
947,2,2022-09-30T20:10:14.288894,1378526,-5535,338,-660,1861,-8,51,26,424,-200
948,2,2022-09-30T20:10:14.294420,1378531,-5536,337,-666,1984,-25,67,26,424,-200
949,2,2022-09-30T20:10:14.301336,1378536,-5536,337,-666,1984,-25,67,26,424,-200
950,2,2022-09-30T20:10:14.310487,1378546,-5538,338,-664,2150,-45,99,26,424,-200
951,2,2022-09-30T20:10:14.319131,1378554,-5538,338,-664,2150,-45,99,26,424,-200
952,2,2022-09-30T20:10:14.332922,1378569,-5537,335,-664,2325,-90,118,26,424,-200
953,2,2022-09-30T20:10:14.341246,1378578,-5537,335,-664,2325,-90,118,26,424,-200
954,2,2022-09-30T20:10:14.352045,1378587,-5540,344,-662,2513,-133,149,26,424,-200
955,2,2022-09-30T20:10:14.361870,1378598,-5540,344,-662,2513,-133,149,26,424,-200
956,2,2022-09-30T20:10:14.371082,1378608,-5536,346,-659,2701,-179,145,24,432,-204
957,2,2022-09-30T20:10:14.380647,1378617,-5536,346,-659,2701,-179,145,24,432,-204
958,2,2022-09-30T20:10:14.388225,1378624,-5536,346,-659,2701,-179,145,24,432,-204
959,2,2022-09-30T20:10:14.393876,1378630,-5527,344,-661,2863,-205,146,24,432,-204
960,2,2022-09-30T20:10:14.406919,1378639,-5527,344,-661,2863,-205,146,24,432,-204
961,2,2022-09-30T20:10:14.415661,1378652,-5533,346,-660,3000,-195,119,24,432,-204
962,2,2022-09-30T20:10:14.424092,1378660,-5533,346,-660,3000,-195,119,24,432,-204
963,2,2022-09-30T20:10:14.430480,1378666,-5533,346,-660,3000,-195,119,24,432,-204
964,2,2022-09-30T20:10:14.436786,1378673,-5555,341,-658,3126,-192,108,24,432,-204
965,2,2022-09-30T20:10:14.444240,1378680,-5555,341,-658,3126,-192,108,24,432,-204
966,2,2022-09-30T20:10:14.451656,1378688,-5544,339,-654,3282,-273,112,24,432,-204
967,2,2022-09-30T20:10:14.461636,1378698,-5544,339,-654,3282,-273,112,24,432,-204
968,2,2022-09-30T20:10:14.471484,1378708,-5533,340,-648,3455,-325,126,24,432,-204
969,2,2022-09-30T20:10:14.481162,1378717,-5533,340,-648,3455,-325,126,24,432,-204
970,2,2022-09-30T20:10:14.493413,1378729,-5522,348,-653,3639,-269,165,26,422,-206
971,2,2022-09-30T20:10:14.501453,1378738,-5522,348,-653,3639,-269,165,26,422,-206
972,2,2022-09-30T20:10:14.508981,1378746,-5522,348,-653,3639,-269,165,26,422,-206
973,2,2022-09-30T20:10:14.514251,1378751,-5522,349,-647,3796,-188,183,26,422,-206
974,2,2022-09-30T20:10:14.520699,1378757,-5522,349,-647,3796,-188,183,26,422,-206
975,2,2022-09-30T20:10:14.528221,1378764,-5522,349,-647,3796,-188,183,26,422,-206
976,2,2022-09-30T20:10:14.535517,1378772,-5533,354,-651,3919,-133,170,26,422,-206
977,2,2022-09-30T20:10:14.541551,1378778,-5533,354,-651,3919,-133,170,26,422,-206
978,2,2022-09-30T20:10:14.549380,1378786,-5533,354,-651,3919,-133,170,26,422,-206
979,2,2022-09-30T20:10:14.555395,1378791,-5530,358,-647,4002,-100,114,26,422,-206
980,2,2022-09-30T20:10:14.564003,1378800,-5530,358,-647,4002,-100,114,26,422,-206
981,2,2022-09-30T20:10:14.572048,1378807,-5527,359,-660,4060,-55,61,26,422,-206
982,2,2022-09-30T20:10:14.581242,1378818,-5527,359,-660,4060,-55,61,26,422,-206
983,2,2022-09-30T20:10:14.589914,1378827,-5528,352,-668,4128,-5,46,26,422,-206
984,2,2022-09-30T20:10:14.595203,1378832,-5528,352,-668,4128,-5,46,26,422,-206
985,2,2022-09-30T20:10:14.605389,1378841,-5528,352,-668,4128,-5,46,26,422,-206
986,2,2022-09-30T20:10:14.612273,1378848,-5532,344,-661,4224,11,40,26,422,-206
987,2,2022-09-30T20:10:14.617605,1378854,-5532,344,-661,4224,11,40,26,422,-206
988,2,2022-09-30T20:10:14.628034,1378864,-5532,344,-661,4224,11,40,26,422,-206
989,2,2022-09-30T20:10:14.637902,1378874,-5525,345,-670,4343,-5,21,35,425,-219
990,2,2022-09-30T20:10:14.645205,1378881,-5525,345,-670,4343,-5,21,35,425,-219
991,2,2022-09-30T20:10:14.653671,1378889,-5521,338,-677,4480,9,46,35,425,-219
992,2,2022-09-30T20:10:14.662821,1378899,-5521,338,-677,4480,9,46,35,425,-219
993,2,2022-09-30T20:10:14.671193,1378908,-5533,341,-680,4628,-1,82,35,425,-219
994,2,2022-09-30T20:10:14.678681,1378914,-5533,341,-680,4628,-1,82,35,425,-219
995,2,2022-09-30T20:10:14.686529,1378923,-5533,341,-680,4628,-1,82,35,425,-219
996,2,2022-09-30T20:10:14.693091,1378929,-5539,332,-679,4796,-45,144,35,425,-219
997,2,2022-09-30T20:10:14.699837,1378935,-5539,332,-679,4796,-45,144,35,425,-219
998,2,2022-09-30T20:10:14.710197,1378947,-5539,332,-679,4796,-45,144,35,425,-219
999,2,2022-09-30T20:10:14.715532,1378952,-5533,339,-685,4980,-95,219,35,425,-219
1000,2,2022-09-30T20:10:14.722996,1378959,-5533,339,-685,4980,-95,219,35,425,-219
1001,2,2022-09-30T20:10:14.733702,1378970,-5529,345,-686,5167,-124,306,35,425,-219
1002,2,2022-09-30T20:10:14.739305,1378975,-5529,345,-686,5167,-124,306,35,425,-219
1003,2,2022-09-30T20:10:14.745328,1378982,-5529,345,-686,5167,-124,306,35,425,-219
1004,2,2022-09-30T20:10:14.754036,1378989,-5529,354,-676,5347,-137,373,40,428,-220
1005,2,2022-09-30T20:10:14.762189,1378999,-5529,354,-676,5347,-137,373,40,428,-220
1006,2,2022-09-30T20:10:14.770047,1379007,-5532,366,-683,5514,-151,419,40,428,-220
1007,2,2022-09-30T20:10:14.776483,1379012,-5532,366,-683,5514,-151,419,40,428,-220
1008,2,2022-09-30T20:10:14.786319,1379023,-5532,366,-683,5514,-151,419,40,428,-220
1009,2,2022-09-30T20:10:14.791889,1379028,-5535,375,-681,5650,-160,437,40,428,-220
1010,2,2022-09-30T20:10:14.798379,1379034,-5535,375,-681,5650,-160,437,40,428,-220
1011,2,2022-09-30T20:10:14.808995,1379045,-5535,375,-681,5650,-160,437,40,428,-220
1012,2,2022-09-30T20:10:14.815793,1379052,-5536,379,-688,5767,-181,423,40,428,-220
1013,2,2022-09-30T20:10:14.822597,1379058,-5536,379,-688,5767,-181,423,40,428,-220
1014,2,2022-09-30T20:10:14.834209,1379069,-5537,383,-689,5875,-207,386,40,428,-220
1015,2,2022-09-30T20:10:14.839065,1379076,-5537,383,-689,5875,-207,386,40,428,-220
1016,2,2022-09-30T20:10:14.845311,1379083,-5537,383,-689,5875,-207,386,40,428,-220
1017,2,2022-09-30T20:10:14.853758,1379087,-5538,387,-686,5989,-221,337,40,428,-220
1018,2,2022-09-30T20:10:14.862978,1379100,-5538,387,-686,5989,-221,337,40,428,-220
1019,2,2022-09-30T20:10:14.868994,1379105,-5538,387,-686,5989,-221,337,40,428,-220
1020,2,2022-09-30T20:10:14.875336,1379110,-5540,387,-677,6077,-229,247,37,423,-237
1021,2,2022-09-30T20:10:14.882051,1379118,-5540,387,-677,6077,-229,247,37,423,-237
1022,2,2022-09-30T20:10:14.888678,1379125,-5540,387,-677,6077,-229,247,37,423,-237
1023,2,2022-09-30T20:10:14.894080,1379131,-5539,390,-682,6162,-247,184,37,423,-237
1024,2,2022-09-30T20:10:14.901377,1379136,-5539,390,-682,6162,-247,184,37,423,-237
1025,2,2022-09-30T20:10:14.910678,1379147,-5533,386,-683,6253,-270,122,37,423,-237
1026,2,2022-09-30T20:10:14.917466,1379154,-5533,386,-683,6253,-270,122,37,423,-237
1027,2,2022-09-30T20:10:14.925165,1379161,-5533,386,-683,6253,-270,122,37,423,-237
1028,2,2022-09-30T20:10:14.930708,1379168,-5535,384,-678,6353,-284,86,37,423,-237
1029,2,2022-09-30T20:10:14.936596,1379173,-5535,384,-678,6353,-284,86,37,423,-237
1030,2,2022-09-30T20:10:14.943203,1379180,-5535,384,-678,6353,-284,86,37,423,-237
1031,2,2022-09-30T20:10:14.951669,1379187,-5533,379,-686,6467,-266,36,37,423,-237
1032,2,2022-09-30T20:10:14.960316,1379196,-5533,379,-686,6467,-266,36,37,423,-237
1033,2,2022-09-30T20:10:14.968556,1379205,-5533,379,-686,6467,-266,36,37,423,-237
1034,2,2022-09-30T20:10:14.974915,1379211,-5531,370,-688,6596,-254,9,37,423,-237
1035,2,2022-09-30T20:10:14.983938,1379220,-5531,370,-688,6596,-254,9,37,423,-237
1036,2,2022-09-30T20:10:14.992144,1379229,-5548,374,-678,6721,-259,-51,61,425,-239
1037,2,2022-09-30T20:10:15.000151,1379235,-5548,374,-678,6721,-259,-51,61,425,-239
1038,2,2022-09-30T20:10:15.009917,1379247,-5548,374,-678,6721,-259,-51,61,425,-239
1039,2,2022-09-30T20:10:15.015564,1379252,-5546,376,-681,6808,-272,-98,61,425,-239
1040,2,2022-09-30T20:10:15.022863,1379259,-5546,376,-681,6808,-272,-98,61,425,-239
1041,2,2022-09-30T20:10:15.033234,1379269,-5542,372,-677,6858,-307,-165,61,425,-239
1042,2,2022-09-30T20:10:15.040056,1379276,-5542,372,-677,6858,-307,-165,61,425,-239
1043,2,2022-09-30T20:10:15.048342,1379284,-5542,372,-677,6858,-307,-165,61,425,-239
1044,2,2022-09-30T20:10:15.057268,1379294,-5537,360,-675,6899,-352,-207,61,425,-239
1045,2,2022-09-30T20:10:15.067421,1379304,-5537,360,-675,6899,-352,-207,61,425,-239
1046,2,2022-09-30T20:10:15.075279,1379310,-5535,346,-667,6971,-373,-214,61,425,-239
1047,2,2022-09-30T20:10:15.086468,1379322,-5535,346,-667,6971,-373,-214,61,425,-239
1048,2,2022-09-30T20:10:15.091938,1379329,-5539,343,-666,7069,-389,-206,61,425,-239
1049,2,2022-09-30T20:10:15.097901,1379334,-5539,343,-666,7069,-389,-206,61,425,-239
1050,2,2022-09-30T20:10:15.108975,1379346,-5539,343,-666,7069,-389,-206,61,425,-239
1051,2,2022-09-30T20:10:15.116821,1379354,-5537,338,-656,7144,-393,-217,58,420,-260
1052,2,2022-09-30T20:10:15.123988,1379360,-5537,338,-656,7144,-393,-217,58,420,-260
1053,2,2022-09-30T20:10:15.132945,1379369,-5531,334,-654,7236,-404,-212,58,420,-260
1054,2,2022-09-30T20:10:15.138614,1379375,-5531,334,-654,7236,-404,-212,58,420,-260
1055,2,2022-09-30T20:10:15.147816,1379384,-5531,334,-654,7236,-404,-212,58,420,-260
1056,2,2022-09-30T20:10:15.155361,1379391,-5536,329,-650,7324,-395,-195,58,420,-260
1057,2,2022-09-30T20:10:15.164335,1379401,-5536,329,-650,7324,-395,-195,58,420,-260
1058,2,2022-09-30T20:10:15.169573,1379406,-5536,329,-650,7324,-395,-195,58,420,-260
1059,2,2022-09-30T20:10:15.176570,1379411,-5531,328,-650,7399,-393,-163,58,420,-260
1060,2,2022-09-30T20:10:15.188367,1379425,-5531,328,-650,7399,-393,-163,58,420,-260
1061,2,2022-09-30T20:10:15.194754,1379431,-5523,326,-646,7452,-372,-138,58,420,-260
1062,2,2022-09-30T20:10:15.206134,1379442,-5523,326,-646,7452,-372,-138,58,420,-260
1063,2,2022-09-30T20:10:15.212997,1379449,-5523,325,-648,7463,-328,-165,58,420,-260
1064,2,2022-09-30T20:10:15.221127,1379456,-5523,325,-648,7463,-328,-165,58,420,-260
1065,2,2022-09-30T20:10:15.230977,1379468,-5539,322,-645,7465,-259,-199,58,420,-260
1066,2,2022-09-30T20:10:15.239068,1379475,-5539,322,-645,7465,-259,-199,58,420,-260
1067,2,2022-09-30T20:10:15.247178,1379483,-5539,322,-645,7465,-259,-199,58,420,-260
1068,2,2022-09-30T20:10:15.257827,1379494,-5549,308,-638,7486,-240,-183,87,423,-259
1069,2,2022-09-30T20:10:15.265893,1379501,-5549,308,-638,7486,-240,-183,87,423,-259
1070,2,2022-09-30T20:10:15.275653,1379512,-5537,305,-643,7532,-280,-150,87,423,-259
1071,2,2022-09-30T20:10:15.282633,1379519,-5537,305,-643,7532,-280,-150,87,423,-259
1072,2,2022-09-30T20:10:15.290959,1379527,-5537,305,-643,7532,-280,-150,87,423,-259
1073,2,2022-09-30T20:10:15.298699,1379534,-5523,314,-641,7595,-286,-114,87,423,-259
1074,2,2022-09-30T20:10:15.312962,1379550,-5516,316,-642,7645,-209,-62,87,423,-259
1075,2,2022-09-30T20:10:15.324563,1379561,-5516,316,-642,7645,-209,-62,87,423,-259
1076,2,2022-09-30T20:10:15.333395,1379569,-5521,321,-642,7665,-119,-4,87,423,-259
1077,2,2022-09-30T20:10:15.340442,1379575,-5521,321,-642,7665,-119,-4,87,423,-259
1078,2,2022-09-30T20:10:15.349035,1379586,-5521,321,-642,7665,-119,-4,87,423,-259
1079,2,2022-09-30T20:10:15.356463,1379593,-5529,324,-649,7654,-55,17,87,423,-259
1080,2,2022-09-30T20:10:15.366396,1379600,-5529,324,-649,7654,-55,17,87,423,-259
1081,2,2022-09-30T20:10:15.374412,1379610,-5531,322,-648,7615,3,10,100,426,-270
1082,2,2022-09-30T20:10:15.380509,1379617,-5531,322,-648,7615,3,10,100,426,-270
1083,2,2022-09-30T20:10:15.390782,1379628,-5529,318,-659,7577,43,-22,100,426,-270
1084,2,2022-09-30T20:10:15.396390,1379633,-5529,318,-659,7577,43,-22,100,426,-270
1085,2,2022-09-30T20:10:15.406334,1379642,-5529,318,-659,7577,43,-22,100,426,-270
1086,2,2022-09-30T20:10:15.414762,1379651,-5535,313,-663,7585,74,-29,100,426,-270
1087,2,2022-09-30T20:10:15.420626,1379657,-5535,313,-663,7585,74,-29,100,426,-270
1088,2,2022-09-30T20:10:15.432638,1379668,-5537,308,-661,7605,75,-20,100,426,-270
1089,2,2022-09-30T20:10:15.441350,1379678,-5537,308,-661,7605,75,-20,100,426,-270
1090,2,2022-09-30T20:10:15.450410,1379686,-5537,308,-661,7605,75,-20,100,426,-270
1091,2,2022-09-30T20:10:15.456957,1379693,-5525,306,-668,7634,53,-29,100,426,-270
1092,2,2022-09-30T20:10:15.467685,1379704,-5525,306,-668,7634,53,-29,100,426,-270
1093,2,2022-09-30T20:10:15.474358,1379709,-5529,305,-670,7671,49,-33,100,426,-270
1094,2,2022-09-30T20:10:15.483676,1379720,-5529,305,-670,7671,49,-33,100,426,-270
1095,2,2022-09-30T20:10:15.492883,1379729,-5536,299,-662,7728,37,-15,113,417,-273
1096,2,2022-09-30T20:10:15.501070,1379735,-5536,299,-662,7728,37,-15,113,417,-273
1097,2,2022-09-30T20:10:15.511188,1379747,-5537,292,-665,7800,-4,39,113,417,-273
1098,2,2022-09-30T20:10:15.518679,1379756,-5537,292,-665,7800,-4,39,113,417,-273
1099,2,2022-09-30T20:10:15.526723,1379763,-5537,292,-665,7800,-4,39,113,417,-273
1100,2,2022-09-30T20:10:15.536271,1379773,-5527,301,-668,7904,-39,98,113,417,-273
1101,2,2022-09-30T20:10:15.543622,1379780,-5527,301,-668,7904,-39,98,113,417,-273
1102,2,2022-09-30T20:10:15.554812,1379791,-5523,312,-675,7960,-19,163,113,417,-273
1103,2,2022-09-30T20:10:15.563475,1379800,-5523,312,-675,7960,-19,163,113,417,-273
1104,2,2022-09-30T20:10:15.572016,1379809,-5529,318,-675,7944,39,222,113,417,-273
1105,2,2022-09-30T20:10:15.582638,1379819,-5529,318,-675,7944,39,222,113,417,-273
1106,2,2022-09-30T20:10:15.592612,1379829,-5530,324,-678,7916,52,272,113,417,-273
1107,2,2022-09-30T20:10:15.601126,1379834,-5530,324,-678,7916,52,272,113,417,-273
1108,2,2022-09-30T20:10:15.610820,1379848,-5530,324,-678,7916,52,272,113,417,-273
1109,2,2022-09-30T20:10:15.617879,1379854,-5527,322,-676,7873,57,296,129,419,-261
1110,2,2022-09-30T20:10:15.629049,1379865,-5527,322,-676,7873,57,296,129,419,-261
1111,2,2022-09-30T20:10:15.636078,1379873,-5536,323,-682,7845,85,273,129,419,-261
1112,2,2022-09-30T20:10:15.653781,1379886,-5536,323,-682,7845,85,273,129,419,-261
1113,2,2022-09-30T20:10:15.662962,1379899,-5535,327,-691,7820,132,212,129,419,-261
1114,2,2022-09-30T20:10:15.676857,1379910,-5541,326,-697,7801,143,154,129,419,-261
1115,2,2022-09-30T20:10:15.684626,1379920,-5541,326,-697,7801,143,154,129,419,-261
1116,2,2022-09-30T20:10:15.694357,1379931,-5548,322,-706,7787,98,101,129,419,-261
1117,2,2022-09-30T20:10:15.705903,1379942,-5548,322,-706,7787,98,101,129,419,-261
1118,2,2022-09-30T20:10:15.717975,1379954,-5547,315,-704,7799,16,22,129,419,-261
1119,2,2022-09-30T20:10:15.726087,1379961,-5547,315,-704,7799,16,22,129,419,-261
1120,2,2022-09-30T20:10:15.736557,1379973,-5545,306,-702,7843,-71,-41,147,417,-267
1121,2,2022-09-30T20:10:15.749611,1379986,-5545,306,-702,7843,-71,-41,147,417,-267
1122,2,2022-09-30T20:10:15.756672,1379993,-5541,305,-697,7886,-151,-82,147,417,-267
1123,2,2022-09-30T20:10:15.765343,1380001,-5541,305,-697,7886,-151,-82,147,417,-267
1124,2,2022-09-30T20:10:15.772950,1380009,-5538,304,-701,7914,-207,-92,147,417,-267
1125,2,2022-09-30T20:10:15.778764,1380015,-5538,304,-701,7914,-207,-92,147,417,-267
1126,2,2022-09-30T20:10:15.786565,1380023,-5538,304,-701,7914,-207,-92,147,417,-267
1127,2,2022-09-30T20:10:15.795078,1380031,-5544,301,-692,7912,-274,-54,147,417,-267
1128,2,2022-09-30T20:10:15.804224,1380040,-5544,301,-692,7912,-274,-54,147,417,-267
1129,2,2022-09-30T20:10:15.813833,1380050,-5539,297,-686,7888,-340,-32,147,417,-267
1130,2,2022-09-30T20:10:15.820401,1380057,-5539,297,-686,7888,-340,-32,147,417,-267
1131,2,2022-09-30T20:10:15.830921,1380068,-5539,297,-686,7888,-340,-32,147,417,-267
1132,2,2022-09-30T20:10:15.836346,1380073,-5538,296,-680,7876,-388,-3,147,417,-267
1133,2,2022-09-30T20:10:15.843599,1380080,-5538,296,-680,7876,-388,-3,147,417,-267
1134,2,2022-09-30T20:10:15.851696,1380087,-5538,296,-680,7876,-388,-3,147,417,-267
1135,2,2022-09-30T20:10:15.860510,1380098,-5533,298,-671,7860,-415,34,147,417,-267
1136,2,2022-09-30T20:10:15.869483,1380106,-5533,298,-671,7860,-415,34,147,417,-267
1137,2,2022-09-30T20:10:15.875695,1380112,-5527,305,-660,7846,-450,58,156,422,-264
1138,2,2022-09-30T20:10:15.886111,1380122,-5527,305,-660,7846,-450,58,156,422,-264
1139,2,2022-09-30T20:10:15.895518,1380132,-5532,305,-655,7803,-459,119,156,422,-264
1140,2,2022-09-30T20:10:15.907050,1380143,-5532,305,-655,7803,-459,119,156,422,-264
1141,2,2022-09-30T20:10:15.915564,1380152,-5534,307,-650,7752,-466,174,156,422,-264
1142,2,2022-09-30T20:10:15.921994,1380158,-5534,307,-650,7752,-466,174,156,422,-264
1143,2,2022-09-30T20:10:15.935965,1380172,-5523,309,-645,7679,-453,212,156,422,-264
1144,2,2022-09-30T20:10:15.943010,1380179,-5523,309,-645,7679,-453,212,156,422,-264
1145,2,2022-09-30T20:10:15.952442,1380188,-5523,309,-645,7679,-453,212,156,422,-264
1146,2,2022-09-30T20:10:15.959210,1380196,-5517,298,-641,7652,-394,234,156,422,-264
1147,2,2022-09-30T20:10:15.969787,1380206,-5517,298,-641,7652,-394,234,156,422,-264
1148,2,2022-09-30T20:10:15.977125,1380213,-5522,316,-636,7632,-303,232,156,422,-264
1149,2,2022-09-30T20:10:15.987605,1380224,-5522,316,-636,7632,-303,232,156,422,-264
1150,2,2022-09-30T20:10:15.994775,1380232,-5518,333,-637,7552,-212,256,177,427,-253
1151,2,2022-09-30T20:10:16.001367,1380237,-5518,333,-637,7552,-212,256,177,427,-253
1152,2,2022-09-30T20:10:16.009752,1380246,-5518,333,-637,7552,-212,256,177,427,-253
1153,2,2022-09-30T20:10:16.016850,1380253,-5522,349,-638,7374,-125,262,177,427,-253
1154,2,2022-09-30T20:10:16.026933,1380262,-5522,349,-638,7374,-125,262,177,427,-253
1155,2,2022-09-30T20:10:16.033038,1380269,-5535,356,-634,7116,-75,253,177,427,-253
1156,2,2022-09-30T20:10:16.039297,1380276,-5535,356,-634,7116,-75,253,177,427,-253
1157,2,2022-09-30T20:10:16.049289,1380283,-5535,356,-634,7116,-75,253,177,427,-253
1158,2,2022-09-30T20:10:16.061996,1380298,-5541,362,-636,6844,-61,248,177,427,-253
1159,2,2022-09-30T20:10:16.071494,1380307,-5541,362,-636,6844,-61,248,177,427,-253
1160,2,2022-09-30T20:10:16.080981,1380316,-5519,355,-643,6568,-45,209,177,427,-253
1161,2,2022-09-30T20:10:16.090445,1380327,-5519,355,-643,6568,-45,209,177,427,-253
1162,2,2022-09-30T20:10:16.098945,1380335,-5538,348,-644,6332,16,117,177,427,-253
1163,2,2022-09-30T20:10:16.112516,1380349,-5561,329,-642,6164,72,17,189,425,-239
1164,2,2022-09-30T20:10:16.120007,1380357,-5561,329,-642,6164,72,17,189,425,-239
1165,2,2022-09-30T20:10:16.130611,1380367,-5561,329,-642,6164,72,17,189,425,-239
1166,2,2022-09-30T20:10:16.138599,1380375,-5551,320,-645,6061,37,-97,189,425,-239
1167,2,2022-09-30T20:10:16.148608,1380384,-5551,320,-645,6061,37,-97,189,425,-239
1168,2,2022-09-30T20:10:16.159042,1380396,-5541,319,-647,6018,-32,-157,189,425,-239
1169,2,2022-09-30T20:10:16.169698,1380406,-5541,319,-647,6018,-32,-157,189,425,-239
1170,2,2022-09-30T20:10:16.178538,1380414,-5529,324,-652,5968,-46,-143,189,425,-239
1171,2,2022-09-30T20:10:16.189366,1380426,-5529,324,-652,5968,-46,-143,189,425,-239
1172,2,2022-09-30T20:10:16.196336,1380432,-5527,326,-652,5843,-47,-115,189,425,-239
1173,2,2022-09-30T20:10:16.210432,1380447,-5527,326,-652,5843,-47,-115,189,425,-239
1174,2,2022-09-30T20:10:16.217263,1380454,-5526,323,-653,5683,-37,-116,189,425,-239
1175,2,2022-09-30T20:10:16.227415,1380460,-5526,323,-653,5683,-37,-116,189,425,-239
1176,2,2022-09-30T20:10:16.238158,1380474,-5522,321,-646,5498,-56,-140,195,425,-233
1177,2,2022-09-30T20:10:16.245808,1380483,-5522,321,-646,5498,-56,-140,195,425,-233
1178,2,2022-09-30T20:10:16.258859,1380496,-5521,324,-645,5297,-13,-140,195,425,-233
1179,2,2022-09-30T20:10:16.268077,1380504,-5521,324,-645,5297,-13,-140,195,425,-233
1180,2,2022-09-30T20:10:16.278095,1380513,-5522,327,-664,5073,83,-129,195,425,-233
1181,2,2022-09-30T20:10:16.290332,1380527,-5522,327,-664,5073,83,-129,195,425,-233
1182,2,2022-09-30T20:10:16.299803,1380536,-5528,333,-666,4835,160,-77,195,425,-233
1183,2,2022-09-30T20:10:16.312415,1380549,-5521,336,-675,4540,185,-31,195,425,-233
1184,2,2022-09-30T20:10:16.329433,1380558,-5521,336,-675,4540,185,-31,195,425,-233
1185,2,2022-09-30T20:10:16.342333,1380579,-5532,336,-687,4227,210,-15,195,425,-233
1186,2,2022-09-30T20:10:16.358439,1380591,-5546,328,-687,3981,188,-8,211,423,-235
1187,2,2022-09-30T20:10:16.367751,1380604,-5546,328,-687,3981,188,-8,211,423,-235
1188,2,2022-09-30T20:10:16.378658,1380613,-5546,316,-688,3807,110,-46,211,423,-235
1189,2,2022-09-30T20:10:16.391586,1380628,-5546,316,-688,3807,110,-46,211,423,-235
1190,2,2022-09-30T20:10:16.402413,1380637,-5544,316,-697,3693,28,-76,211,423,-235
1191,2,2022-09-30T20:10:16.416391,1380653,-5540,318,-695,3593,-34,-93,211,423,-235
1192,2,2022-09-30T20:10:16.430523,1380665,-5540,318,-695,3593,-34,-93,211,423,-235
1193,2,2022-09-30T20:10:16.439640,1380676,-5540,312,-696,3482,-83,-102,211,423,-235
1194,2,2022-09-30T20:10:16.449387,1380685,-5540,312,-696,3482,-83,-102,211,423,-235
1195,2,2022-09-30T20:10:16.460680,1380698,-5542,321,-688,3345,-143,-139,211,423,-235
1196,2,2022-09-30T20:10:16.470705,1380708,-5542,321,-688,3345,-143,-139,211,423,-235
1197,2,2022-09-30T20:10:16.478767,1380715,-5538,323,-694,3168,-212,-142,211,423,-235
1198,2,2022-09-30T20:10:16.489445,1380725,-5538,323,-694,3168,-212,-142,211,423,-235
1199,2,2022-09-30T20:10:16.497739,1380734,-5539,323,-684,2970,-296,-128,218,410,-232
1200,2,2022-09-30T20:10:16.514100,1380751,-5534,319,-678,2762,-343,-117,218,410,-232
1201,2,2022-09-30T20:10:16.523865,1380760,-5534,319,-678,2762,-343,-117,218,410,-232
1202,2,2022-09-30T20:10:16.538489,1380775,-5535,315,-679,2553,-370,-107,218,410,-232
1203,2,2022-09-30T20:10:16.547015,1380784,-5535,315,-679,2553,-370,-107,218,410,-232
1204,2,2022-09-30T20:10:16.557594,1380794,-5535,309,-675,2332,-397,-116,218,410,-232
1205,2,2022-09-30T20:10:16.568863,1380805,-5535,309,-675,2332,-397,-116,218,410,-232
1206,2,2022-09-30T20:10:16.579514,1380815,-5535,312,-672,2115,-437,-102,218,410,-232
1207,2,2022-09-30T20:10:16.591227,1380828,-5535,312,-672,2115,-437,-102,218,410,-232
1208,2,2022-09-30T20:10:16.602534,1380836,-5535,319,-670,1878,-462,-72,218,410,-232
1209,2,2022-09-30T20:10:16.619515,1380855,-5534,321,-665,1601,-499,-46,217,419,-221
1210,2,2022-09-30T20:10:16.636308,1380873,-5529,318,-663,1316,-529,-20,217,419,-221
1211,2,2022-09-30T20:10:16.651646,1380885,-5529,318,-663,1316,-529,-20,217,419,-221
1212,2,2022-09-30T20:10:16.667408,1380903,-5525,323,-659,1018,-528,-14,217,419,-221
1213,2,2022-09-30T20:10:16.683279,1380914,-5528,330,-649,721,-526,-12,217,419,-221
1214,2,2022-09-30T20:10:16.692635,1380929,-5538,325,-649,417,-550,-8,217,419,-221
1215,2,2022-09-30T20:10:16.701127,1380937,-5538,325,-649,417,-550,-8,217,419,-221
1216,2,2022-09-30T20:10:16.707295,1380943,-5538,325,-649,417,-550,-8,217,419,-221
1217,2,2022-09-30T20:10:16.716945,1380954,-5534,325,-645,122,-571,15,217,419,-221
1218,2,2022-09-30T20:10:16.729548,1380963,-5534,325,-645,122,-571,15,217,419,-221
1219,2,2022-09-30T20:10:16.739897,1380976,-5528,333,-641,-173,-571,36,219,417,-223
1220,2,2022-09-30T20:10:16.748743,1380983,-5528,333,-641,-173,-571,36,219,417,-223
1221,2,2022-09-30T20:10:16.760384,1380997,-5534,327,-644,-475,-580,68,219,417,-223
1222,2,2022-09-30T20:10:16.770961,1381007,-5534,327,-644,-475,-580,68,219,417,-223
1223,2,2022-09-30T20:10:16.785782,1381021,-5540,328,-636,-746,-622,91,219,417,-223
1224,2,2022-09-30T20:10:16.799736,1381035,-5532,326,-633,-986,-677,97,219,417,-223
1225,2,2022-09-30T20:10:16.806500,1381043,-5532,326,-633,-986,-677,97,219,417,-223
1226,2,2022-09-30T20:10:16.815001,1381051,-5528,324,-623,-1197,-698,116,219,417,-223
1227,2,2022-09-30T20:10:16.821212,1381058,-5528,324,-623,-1197,-698,116,219,417,-223
1228,2,2022-09-30T20:10:16.838796,1381075,-5532,322,-610,-1387,-733,142,219,417,-223
1229,2,2022-09-30T20:10:16.849377,1381085,-5532,322,-610,-1387,-733,142,219,417,-223
1230,2,2022-09-30T20:10:16.861623,1381098,-5538,325,-601,-1563,-790,154,216,416,-222
1231,2,2022-09-30T20:10:16.869859,1381106,-5538,325,-601,-1563,-790,154,216,416,-222
1232,2,2022-09-30T20:10:16.881223,1381112,-5534,333,-593,-1733,-843,165,216,416,-222
1233,2,2022-09-30T20:10:16.890145,1381127,-5534,333,-593,-1733,-843,165,216,416,-222
1234,2,2022-09-30T20:10:16.901911,1381137,-5538,337,-590,-1906,-909,204,216,416,-222
1235,2,2022-09-30T20:10:16.915674,1381152,-5543,339,-575,-2082,-972,262,216,416,-222
1236,2,2022-09-30T20:10:16.926403,1381163,-5543,339,-575,-2082,-972,262,216,416,-222
1237,2,2022-09-30T20:10:16.936752,1381173,-5545,345,-563,-2273,-1039,284,216,416,-222
1238,2,2022-09-30T20:10:16.945218,1381182,-5545,345,-563,-2273,-1039,284,216,416,-222
1239,2,2022-09-30T20:10:16.959482,1381195,-5524,352,-554,-2486,-1052,271,216,416,-222
1240,2,2022-09-30T20:10:16.970053,1381207,-5524,352,-554,-2486,-1052,271,216,416,-222
1241,2,2022-09-30T20:10:16.982843,1381220,-5524,357,-546,-2708,-992,233,215,421,-223
1242,2,2022-09-30T20:10:16.997969,1381234,-5543,362,-533,-2950,-912,164,215,421,-223
1243,2,2022-09-30T20:10:17.011985,1381249,-5543,362,-533,-2950,-912,164,215,421,-223
1244,2,2022-09-30T20:10:17.021371,1381257,-5544,365,-524,-3240,-867,103,215,421,-223
1245,2,2022-09-30T20:10:17.035883,1381271,-5524,369,-523,-3528,-834,70,215,421,-223
1246,2,2022-09-30T20:10:17.045856,1381281,-5524,369,-523,-3528,-834,70,215,421,-223
1247,2,2022-09-30T20:10:17.058022,1381295,-5512,369,-521,-3812,-696,54,215,421,-223
1248,2,2022-09-30T20:10:17.068198,1381305,-5512,369,-521,-3812,-696,54,215,421,-223
1249,2,2022-09-30T20:10:17.077072,1381311,-5505,372,-525,-4125,-503,6,215,421,-223
1250,2,2022-09-30T20:10:17.087586,1381324,-5505,372,-525,-4125,-503,6,215,421,-223
1251,2,2022-09-30T20:10:17.097716,1381335,-5510,376,-527,-4479,-290,-90,215,421,-223
1252,2,2022-09-30T20:10:17.118187,1381355,-5512,384,-542,-4865,-85,-178,204,422,-224
1253,2,2022-09-30T20:10:17.134543,1381371,-5509,377,-551,-5280,88,-257,204,422,-224
1254,2,2022-09-30T20:10:17.147010,1381383,-5509,377,-551,-5280,88,-257,204,422,-224
1255,2,2022-09-30T20:10:17.161245,1381397,-5515,369,-564,-5694,250,-318,204,422,-224
1256,2,2022-09-30T20:10:17.171381,1381408,-5515,369,-564,-5694,250,-318,204,422,-224
1257,2,2022-09-30T20:10:17.179985,1381416,-5525,357,-585,-6089,386,-367,204,422,-224
1258,2,2022-09-30T20:10:17.190180,1381427,-5525,357,-585,-6089,386,-367,204,422,-224
1259,2,2022-09-30T20:10:17.201518,1381437,-5523,347,-602,-6440,454,-388,204,422,-224
1260,2,2022-09-30T20:10:17.219446,1381454,-5521,335,-621,-6732,495,-385,204,422,-224
1261,2,2022-09-30T20:10:17.232929,1381470,-5534,322,-624,-6969,522,-353,204,422,-224
1262,2,2022-09-30T20:10:17.243948,1381481,-5534,322,-624,-6969,522,-353,201,421,-239
1263,2,2022-09-30T20:10:17.257214,1381491,-5543,308,-640,-7137,486,-315,201,421,-239
1264,2,2022-09-30T20:10:17.268180,1381502,-5543,308,-640,-7137,486,-315,201,421,-239
1265,2,2022-09-30T20:10:17.281156,1381518,-5549,303,-646,-7217,393,-268,201,421,-239
1266,2,2022-09-30T20:10:17.291836,1381528,-5549,303,-646,-7217,393,-268,201,421,-239
1267,2,2022-09-30T20:10:17.304417,1381537,-5542,300,-648,-7243,260,-236,201,421,-239
1268,2,2022-09-30T20:10:17.318843,1381555,-5535,312,-654,-7262,170,-189,201,421,-239
1269,2,2022-09-30T20:10:17.339138,1381574,-5545,320,-668,-7327,96,-122,201,421,-239
1270,2,2022-09-30T20:10:17.350898,1381586,-5545,320,-668,-7327,96,-122,201,421,-239
1271,2,2022-09-30T20:10:17.360252,1381597,-5544,326,-659,-7422,8,-70,187,411,-251
1272,2,2022-09-30T20:10:17.367565,1381604,-5544,326,-659,-7422,8,-70,187,411,-251
1273,2,2022-09-30T20:10:17.375373,1381611,-5546,328,-666,-7545,-78,-57,187,411,-251
1274,2,2022-09-30T20:10:17.381671,1381618,-5546,328,-666,-7545,-78,-57,187,411,-251
1275,2,2022-09-30T20:10:17.389093,1381625,-5546,328,-666,-7545,-78,-57,187,411,-251
1276,2,2022-09-30T20:10:17.396326,1381633,-5538,344,-664,-7696,-124,-100,187,411,-251
1277,2,2022-09-30T20:10:17.404242,1381639,-5538,344,-664,-7696,-124,-100,187,411,-251
1278,2,2022-09-30T20:10:17.414316,1381651,-5541,344,-667,-7872,-154,-127,187,411,-251
1279,2,2022-09-30T20:10:17.422716,1381659,-5541,344,-667,-7872,-154,-127,187,411,-251
1280,2,2022-09-30T20:10:17.431943,1381668,-5541,344,-667,-7872,-154,-127,187,411,-251
1281,2,2022-09-30T20:10:17.438025,1381675,-5538,345,-665,-8036,-193,-146,187,411,-251
1282,2,2022-09-30T20:10:17.447392,1381684,-5538,345,-665,-8036,-193,-146,187,411,-251
1283,2,2022-09-30T20:10:17.457172,1381694,-5533,342,-669,-8167,-215,-165,187,411,-251
1284,2,2022-09-30T20:10:17.464004,1381700,-5533,342,-669,-8167,-215,-165,187,411,-251
1285,2,2022-09-30T20:10:17.473006,1381709,-5533,342,-669,-8167,-215,-165,187,411,-251
1286,2,2022-09-30T20:10:17.483322,1381720,-5538,345,-669,-8308,-204,-209,166,424,-252
1287,2,2022-09-30T20:10:17.493379,1381730,-5538,345,-669,-8308,-204,-209,166,424,-252
1288,2,2022-09-30T20:10:17.500694,1381736,-5546,347,-673,-8454,-195,-255,166,424,-252
1289,2,2022-09-30T20:10:17.513013,1381749,-5538,347,-676,-8619,-190,-256,166,424,-252
1290,2,2022-09-30T20:10:17.522454,1381758,-5538,347,-676,-8619,-190,-256,166,424,-252
1291,2,2022-09-30T20:10:17.536209,1381773,-5525,343,-678,-8780,-187,-256,166,424,-252
1292,2,2022-09-30T20:10:17.544102,1381781,-5525,343,-678,-8780,-187,-256,166,424,-252
1293,2,2022-09-30T20:10:17.556355,1381792,-5534,344,-681,-8924,-177,-251,166,424,-252
1294,2,2022-09-30T20:10:17.565341,1381801,-5534,344,-681,-8924,-177,-251,166,424,-252
1295,2,2022-09-30T20:10:17.573883,1381810,-5529,345,-687,-9070,-165,-264,166,424,-252
1296,2,2022-09-30T20:10:17.580085,1381816,-5529,345,-687,-9070,-165,-264,166,424,-252
1297,2,2022-09-30T20:10:17.587547,1381824,-5529,345,-687,-9070,-165,-264,166,424,-252
1298,2,2022-09-30T20:10:17.593355,1381830,-5530,346,-692,-9204,-171,-281,150,416,-252
1299,2,2022-09-30T20:10:17.600174,1381835,-5530,346,-692,-9204,-171,-281,150,416,-262
1300,2,2022-09-30T20:10:17.609095,1381846,-5530,346,-692,-9204,-171,-281,150,416,-262
1301,2,2022-09-30T20:10:17.614991,1381852,-5526,351,-695,-9341,-145,-297,150,416,-262
1302,2,2022-09-30T20:10:17.620722,1381857,-5526,351,-695,-9341,-145,-297,150,416,-262
1303,2,2022-09-30T20:10:17.627490,1381864,-5526,351,-695,-9341,-145,-297,150,416,-262
1304,2,2022-09-30T20:10:17.635342,1381872,-5538,351,-700,-9483,-114,-293,150,416,-262
1305,2,2022-09-30T20:10:17.640737,1381877,-5538,351,-700,-9483,-114,-293,150,416,-262
1306,2,2022-09-30T20:10:17.647332,1381884,-5538,351,-700,-9483,-114,-293,150,416,-262
1307,2,2022-09-30T20:10:17.656715,1381894,-5541,344,-708,-9632,-152,-337,150,416,-262
1308,2,2022-09-30T20:10:17.662558,1381899,-5541,344,-708,-9632,-152,-337,150,416,-262
1309,2,2022-09-30T20:10:17.670867,1381908,-5541,344,-708,-9632,-152,-337,150,416,-262
1310,2,2022-09-30T20:10:17.676620,1381913,-5542,336,-715,-9725,-195,-385,150,416,-262
1311,2,2022-09-30T20:10:17.682186,1381919,-5542,336,-715,-9725,-195,-385,150,416,-262
1312,2,2022-09-30T20:10:17.690104,1381926,-5542,336,-715,-9725,-195,-385,150,416,-262
1313,2,2022-09-30T20:10:17.695603,1381933,-5544,331,-716,-9798,-254,-439,150,416,-262
1314,2,2022-09-30T20:10:17.701702,1381938,-5544,331,-716,-9798,-254,-439,150,416,-262
1315,2,2022-09-30T20:10:17.708841,1381946,-5544,331,-716,-9798,-254,-439,150,416,-262
1316,2,2022-09-30T20:10:17.715335,1381952,-5550,323,-716,-9829,-314,-488,125,427,-259
1317,2,2022-09-30T20:10:17.721031,1381957,-5550,323,-716,-9829,-314,-488,125,427,-259
1318,2,2022-09-30T20:10:17.727672,1381964,-5550,323,-716,-9829,-314,-488,125,427,-259
1319,2,2022-09-30T20:10:17.734261,1381971,-5548,315,-707,-9846,-392,-566,125,427,-259
1320,2,2022-09-30T20:10:17.739787,1381977,-5548,315,-707,-9846,-392,-566,125,427,-259
1321,2,2022-09-30T20:10:17.746125,1381983,-5548,315,-707,-9846,-392,-566,125,427,-259
1322,2,2022-09-30T20:10:17.753235,1381990,-5548,315,-707,-9846,-392,-566,125,427,-259
1323,2,2022-09-30T20:10:17.758613,1381995,-5550,309,-708,-9844,-469,-644,125,427,-259
1324,2,2022-09-30T20:10:17.765376,1382002,-5550,309,-708,-9844,-469,-644,125,427,-259
1325,2,2022-09-30T20:10:17.772405,1382009,-5550,309,-708,-9844,-469,-644,125,427,-259
1326,2,2022-09-30T20:10:17.778211,1382014,-5553,303,-701,-9842,-567,-739,125,427,-259
1327,2,2022-09-30T20:10:17.784958,1382022,-5553,303,-701,-9842,-567,-739,125,427,-259
1328,2,2022-09-30T20:10:17.791697,1382029,-5553,303,-701,-9842,-567,-739,125,427,-259
1329,2,2022-09-30T20:10:17.796905,1382034,-5546,292,-696,-9855,-677,-845,125,427,-259
1330,2,2022-09-30T20:10:17.802675,1382039,-5546,292,-696,-9855,-677,-845,125,427,-259
1331,2,2022-09-30T20:10:17.807827,1382045,-5546,292,-696,-9855,-677,-845,125,427,-259
1332,2,2022-09-30T20:10:17.813455,1382050,-5557,281,-688,-9858,-769,-922,125,427,-259
1333,2,2022-09-30T20:10:17.819025,1382055,-5557,281,-688,-9858,-769,-922,125,427,-259
1334,2,2022-09-30T20:10:17.825770,1382063,-5557,281,-688,-9858,-769,-922,125,427,-259
1335,2,2022-09-30T20:10:17.832967,1382070,-5557,281,-688,-9858,-769,-922,125,427,-259
1336,2,2022-09-30T20:10:17.838406,1382075,-5549,286,-678,-9897,-848,-978,125,427,-259
1337,2,2022-09-30T20:10:17.845450,1382082,-5549,286,-678,-9897,-848,-978,125,427,-259
1338,2,2022-09-30T20:10:17.858217,1382093,-5499,286,-671,-10023,-896,-1047,110,424,-258
1339,2,2022-09-30T20:10:17.865388,1382102,-5499,286,-671,-10023,-896,-1047,110,424,-258
1340,2,2022-09-30T20:10:17.873967,1382111,-5528,274,-663,-10184,-925,-1054,110,424,-258
1341,2,2022-09-30T20:10:17.882986,1382120,-5528,274,-663,-10184,-925,-1054,110,424,-258
1342,2,2022-09-30T20:10:17.893308,1382130,-5528,274,-663,-10184,-925,-1054,110,424,-258
1343,2,2022-09-30T20:10:17.901061,1382136,-5551,259,-649,-10336,-926,-970,110,424,-258
1344,2,2022-09-30T20:10:17.913015,1382150,-5551,259,-649,-10336,-926,-970,110,424,-258
1345,2,2022-09-30T20:10:17.920881,1382158,-5515,250,-642,-10503,-969,-899,110,424,-258
1346,2,2022-09-30T20:10:17.929065,1382165,-5515,250,-642,-10503,-969,-899,110,424,-258
1347,2,2022-09-30T20:10:17.937878,1382174,-5534,237,-640,-10568,-1037,-792,110,424,-258
1348,2,2022-09-30T20:10:17.943809,1382180,-5534,237,-640,-10568,-1037,-792,110,424,-258
1349,2,2022-09-30T20:10:17.953129,1382189,-5534,237,-640,-10568,-1037,-792,110,424,-258
1350,2,2022-09-30T20:10:17.962056,1382199,-5531,224,-632,-10512,-1028,-586,110,424,-258
1351,2,2022-09-30T20:10:17.970677,1382207,-5531,224,-632,-10512,-1028,-586,110,424,-258
1352,2,2022-09-30T20:10:17.976617,1382213,-5517,233,-623,-10374,-990,-379,93,429,-251
1353,2,2022-09-30T20:10:17.983497,1382220,-5517,233,-623,-10374,-990,-379,93,429,-251
1354,2,2022-09-30T20:10:17.992112,1382228,-5517,233,-623,-10374,-990,-379,93,429,-251
1355,2,2022-09-30T20:10:17.998460,1382235,-5515,250,-624,-10227,-934,-211,93,429,-251
1356,2,2022-09-30T20:10:18.016323,1382252,-5515,267,-617,-10174,-878,-116,93,429,-251
1357,2,2022-09-30T20:10:18.033408,1382270,-5518,287,-621,-10244,-795,-95,93,429,-251
1358,2,2022-09-30T20:10:18.043202,1382280,-5518,287,-621,-10244,-795,-95,93,429,-251
1359,2,2022-09-30T20:10:18.054741,1382291,-5526,288,-617,-10383,-714,-139,93,429,-251
1360,2,2022-09-30T20:10:18.062906,1382300,-5526,288,-617,-10383,-714,-139,93,429,-251
1361,2,2022-09-30T20:10:18.073561,1382309,-5526,288,-617,-10383,-714,-139,93,429,-251
1362,2,2022-09-30T20:10:18.083600,1382320,-5534,285,-614,-10529,-643,-217,93,429,-251
1363,2,2022-09-30T20:10:18.097253,1382333,-5516,287,-625,-10668,-576,-308,78,432,-254
1364,2,2022-09-30T20:10:18.108423,1382345,-5516,287,-625,-10668,-576,-308,78,432,-254
1365,2,2022-09-30T20:10:18.117913,1382354,-5510,284,-629,-10801,-460,-385,78,432,-254
1366,2,2022-09-30T20:10:18.127526,1382364,-5510,284,-629,-10801,-460,-385,78,432,-254
1367,2,2022-09-30T20:10:18.138346,1382375,-5523,269,-636,-10918,-357,-454,78,432,-254
1368,2,2022-09-30T20:10:18.151878,1382385,-5523,269,-636,-10918,-357,-454,78,432,-254
1369,2,2022-09-30T20:10:18.163593,1382401,-5532,252,-646,-10979,-337,-499,78,432,-254
1370,2,2022-09-30T20:10:18.179249,1382412,-5535,248,-648,-10990,-335,-501,78,432,-254
1371,2,2022-09-30T20:10:18.187423,1382424,-5535,248,-648,-10990,-335,-501,78,432,-254
1372,2,2022-09-30T20:10:18.200132,1382435,-5536,242,-648,-10955,-355,-438,78,432,-254
1373,2,2022-09-30T20:10:18.211674,1382449,-5536,242,-648,-10955,-355,-438,78,432,-254
1374,2,2022-09-30T20:10:18.220941,1382458,-5535,242,-649,-10898,-388,-351,64,428,-236
1375,2,2022-09-30T20:10:18.234788,1382470,-5536,244,-648,-10841,-438,-262,64,428,-236
1376,2,2022-09-30T20:10:18.247065,1382483,-5536,244,-648,-10841,-438,-262,64,428,-236
1377,2,2022-09-30T20:10:18.261728,1382498,-5538,246,-649,-10746,-503,-180,64,428,-236
1378,2,2022-09-30T20:10:18.281757,1382517,-5536,251,-654,-10663,-553,-104,64,428,-236
1379,2,2022-09-30T20:10:18.292063,1382529,-5536,251,-654,-10663,-553,-104,64,428,-236
1380,2,2022-09-30T20:10:18.299671,1382534,-5538,254,-650,-10581,-600,-58,64,428,-236
1381,2,2022-09-30T20:10:18.308754,1382545,-5538,254,-650,-10581,-600,-58,64,428,-236
1382,2,2022-09-30T20:10:18.319641,1382555,-5537,261,-641,-10475,-662,-48,64,428,-236
1383,2,2022-09-30T20:10:18.336201,1382573,-5532,271,-641,-10375,-694,-64,50,426,-226
1384,2,2022-09-30T20:10:18.347227,1382584,-5532,271,-641,-10375,-694,-64,50,426,-226
1385,2,2022-09-30T20:10:18.365357,1382601,-5524,279,-630,-10293,-694,-57,50,426,-226
1386,2,2022-09-30T20:10:18.377152,1382612,-5523,289,-632,-10255,-673,-30,50,426,-226
1387,2,2022-09-30T20:10:18.386181,1382623,-5523,289,-632,-10255,-673,-30,50,426,-226
1388,2,2022-09-30T20:10:18.395014,1382632,-5529,293,-631,-10233,-628,0,50,426,-226
1389,2,2022-09-30T20:10:18.408918,1382644,-5529,293,-631,-10233,-628,0,50,426,-226
1390,2,2022-09-30T20:10:18.415463,1382652,-5529,293,-622,-10219,-619,22,50,426,-226
1391,2,2022-09-30T20:10:18.423135,1382660,-5529,293,-622,-10219,-619,22,50,426,-226
1392,2,2022-09-30T20:10:18.434956,1382671,-5525,297,-627,-10188,-581,33,50,426,-226
1393,2,2022-09-30T20:10:18.441863,1382678,-5525,297,-627,-10188,-581,33,50,426,-226
1394,2,2022-09-30T20:10:18.454172,1382688,-5525,297,-627,-10188,-581,33,50,426,-226
1395,2,2022-09-30T20:10:18.465491,1382702,-5528,298,-628,-10128,-531,25,50,426,-226
1396,2,2022-09-30T20:10:18.482848,1382719,-5533,302,-626,-10068,-481,-16,27,427,-211
1397,2,2022-09-30T20:10:18.494836,1382731,-5533,302,-626,-9972,-458,-59,27,427,-211
1398,2,2022-09-30T20:10:18.505984,1382742,-5533,302,-626,-9972,-458,-59,27,427,-211
1399,2,2022-09-30T20:10:18.517876,1382754,-5536,309,-623,-9882,-439,-130,27,427,-211
1400,2,2022-09-30T20:10:18.527535,1382764,-5536,309,-623,-9882,-439,-130,27,427,-211
1401,2,2022-09-30T20:10:18.537730,1382774,-5538,311,-625,-9791,-429,-201,27,427,-211
1402,2,2022-09-30T20:10:18.546838,1382784,-5538,311,-625,-9791,-429,-201,27,427,-211
1403,2,2022-09-30T20:10:18.560533,1382797,-5531,308,-626,-9696,-405,-258,27,427,-211
1404,2,2022-09-30T20:10:18.570958,1382807,-5531,308,-626,-9696,-405,-258,27,427,-211
1405,2,2022-09-30T20:10:18.582833,1382819,-5532,307,-625,-9614,-353,-322,27,427,-211
1406,2,2022-09-30T20:10:18.594038,1382831,-5543,301,-625,-9523,-324,-392,27,427,-211
1407,2,2022-09-30T20:10:18.603909,1382839,-5543,301,-625,-9523,-324,-392,23,425,-189
1408,2,2022-09-30T20:10:18.612057,1382848,-5543,301,-625,-9523,-324,-392,23,425,-189
1409,2,2022-09-30T20:10:18.621640,1382858,-5534,294,-629,-9418,-314,-459,23,425,-189
1410,2,2022-09-30T20:10:18.641122,1382877,-5534,288,-630,-9300,-294,-517,23,425,-189
1411,2,2022-09-30T20:10:18.653831,1382889,-5534,288,-630,-9300,-294,-517,23,425,-189
1412,2,2022-09-30T20:10:18.663806,1382900,-5533,281,-627,-9158,-275,-552,23,425,-189
1413,2,2022-09-30T20:10:18.675532,1382910,-5534,277,-634,-9006,-271,-576,23,425,-189
1414,2,2022-09-30T20:10:18.684046,1382921,-5534,277,-634,-9006,-271,-576,23,425,-189
1415,2,2022-09-30T20:10:18.694611,1382931,-5535,272,-626,-8876,-263,-599,23,425,-189
1416,2,2022-09-30T20:10:18.706498,1382942,-5535,272,-626,-8876,-263,-599,23,425,-189
1417,2,2022-09-30T20:10:18.719254,1382956,-5533,269,-624,-8745,-251,-597,16,424,-174
1418,2,2022-09-30T20:10:18.728837,1382966,-5533,269,-624,-8745,-251,-597,16,424,-174
1419,2,2022-09-30T20:10:18.739496,1382976,-5506,257,-631,-8587,-229,-554,16,424,-174
1420,2,2022-09-30T20:10:18.749926,1382985,-5506,257,-631,-8587,-229,-554,16,424,-174
1421,2,2022-09-30T20:10:18.761915,1382999,-5513,260,-636,-8441,-167,-513,16,424,-174
1422,2,2022-09-30T20:10:18.775252,1383009,-5513,260,-636,-8441,-167,-513,16,424,-174
1423,2,2022-09-30T20:10:18.787520,1383023,-5534,260,-640,-8331,-106,-471,16,424,-174
1424,2,2022-09-30T20:10:18.797472,1383034,-5551,248,-641,-8210,-150,-432,16,424,-174
1425,2,2022-09-30T20:10:18.806607,1383044,-5551,248,-641,-8210,-150,-432,16,424,-174
1426,2,2022-09-30T20:10:18.817152,1383054,-5536,246,-640,-8028,-255,-331,16,424,-174
1427,2,2022-09-30T20:10:18.829601,1383066,-5536,246,-640,-8028,-255,-331,16,424,-174
1428,2,2022-09-30T20:10:18.838668,1383075,-5536,246,-640,-8028,-255,-331,10,428,-158
1429,2,2022-09-30T20:10:18.845319,1383081,-5536,246,-640,-8028,-255,-331,10,428,-158
1430,2,2022-09-30T20:10:18.857687,1383095,-5529,255,-644,-7469,-342,-12,10,428,-158
1431,2,2022-09-30T20:10:18.866053,1383101,-5529,255,-644,-7469,-342,-12,10,428,-158
1432,2,2022-09-30T20:10:18.876398,1383113,-5530,264,-642,-7167,-338,83,10,428,-158
1433,2,2022-09-30T20:10:18.882314,1383118,-5530,264,-642,-7167,-338,83,10,428,-158
1434,2,2022-09-30T20:10:18.890934,1383128,-5530,264,-642,-7167,-338,83,10,428,-158
1435,2,2022-09-30T20:10:18.896794,1383134,-5525,285,-634,-6901,-322,126,10,428,-158
1436,2,2022-09-30T20:10:18.904177,1383139,-5525,285,-634,-6901,-322,126,10,428,-158
1437,2,2022-09-30T20:10:18.914680,1383151,-5525,285,-634,-6901,-322,126,10,428,-158
1438,2,2022-09-30T20:10:18.921719,1383158,-5526,298,-635,-6700,-296,152,10,428,-158
1439,2,2022-09-30T20:10:18.926891,1383163,-5526,298,-635,-6700,-296,152,10,428,-158
1440,2,2022-09-30T20:10:18.934728,1383171,-5536,305,-635,-6543,-269,138,10,428,-158
1441,2,2022-09-30T20:10:18.939755,1383177,-5536,305,-635,-6543,-269,138,10,428,-158
1442,2,2022-09-30T20:10:18.945971,1383183,-5536,305,-635,-6543,-269,138,10,428,-158
1443,2,2022-09-30T20:10:18.952069,1383189,-5536,305,-635,-6543,-269,138,10,428,-158
1444,2,2022-09-30T20:10:18.957481,1383194,-5541,306,-632,-6394,-252,91,8,424,-140
1445,2,2022-09-30T20:10:18.964182,1383199,-5541,306,-632,-6394,-252,91,8,424,-140
1446,2,2022-09-30T20:10:18.975378,1383212,-5527,305,-630,-6220,-245,21,8,424,-140
1447,2,2022-09-30T20:10:18.985243,1383221,-5527,305,-630,-6220,-245,21,8,424,-140
1448,2,2022-09-30T20:10:18.994899,1383232,-5523,304,-640,-6019,-190,-70,8,424,-140
1449,2,2022-09-30T20:10:19.004541,1383237,-5523,304,-640,-6019,-190,-70,8,424,-140
1450,2,2022-09-30T20:10:19.014375,1383251,-5533,306,-645,-5823,-106,-145,8,424,-140
1451,2,2022-09-30T20:10:19.021025,1383258,-5533,306,-645,-5823,-106,-145,8,424,-140
1452,2,2022-09-30T20:10:19.029496,1383264,-5533,306,-645,-5823,-106,-145,8,424,-140
1453,2,2022-09-30T20:10:19.041869,1383278,-5542,301,-645,-5621,-99,-191,8,424,-140
1454,2,2022-09-30T20:10:19.049243,1383285,-5542,301,-645,-5621,-99,-191,8,424,-140
1455,2,2022-09-30T20:10:19.060753,1383298,-5536,294,-647,-5399,-154,-220,8,424,-140
1456,2,2022-09-30T20:10:19.069549,1383307,-5536,294,-647,-5399,-154,-220,8,424,-140
1457,2,2022-09-30T20:10:19.075242,1383312,-5532,291,-643,-5150,-169,-237,8,424,-140
1458,2,2022-09-30T20:10:19.083051,1383318,-5532,291,-643,-5150,-169,-237,8,424,-140
1459,2,2022-09-30T20:10:19.090271,1383327,-5532,291,-643,-5150,-169,-237,8,424,-140
1460,2,2022-09-30T20:10:19.100856,1383337,-5531,283,-645,-4872,-128,-222,16,426,-138
