,imu,server_time,arduino_time,ax,ay,az,gx,gy,gz,mx,my,mz
0,0,2022-09-30T20:10:05.291158,1369502,1127,62,1425,-1012,-742,212,82,114,-24
1,0,2022-09-30T20:10:05.303397,1369535,1109,58,1422,-1023,-784,177,86,116,-30
2,0,2022-09-30T20:10:05.315107,1369548,1112,55,1424,-1068,-781,62,86,116,-30
3,0,2022-09-30T20:10:05.327875,1369562,1128,51,1438,-1097,-665,14,86,116,-30
4,0,2022-09-30T20:10:05.339848,1369574,1128,51,1438,-1097,-665,14,86,116,-30
5,0,2022-09-30T20:10:05.348168,1369582,1128,39,1438,-1120,-631,57,86,116,-30
6,0,2022-09-30T20:10:05.358605,1369592,1128,39,1438,-1120,-631,57,86,116,-30
7,0,2022-09-30T20:10:05.365384,1369600,1127,33,1435,-1089,-626,89,86,116,-30
8,0,2022-09-30T20:10:05.372753,1369607,1127,33,1435,-1089,-626,89,86,116,-30
9,0,2022-09-30T20:10:05.380549,1369615,1127,33,1435,-1089,-626,89,86,116,-30
10,0,2022-09-30T20:10:05.387563,1369622,1137,38,1428,-1062,-610,100,86,116,-30
11,0,2022-09-30T20:10:05.397737,1369631,1137,38,1428,-1062,-610,100,86,116,-30
12,0,2022-09-30T20:10:05.405588,1369639,1133,46,1425,-1067,-632,47,87,115,-29
13,0,2022-09-30T20:10:05.414666,1369649,1133,46,1425,-1067,-632,47,87,115,-29
14,0,2022-09-30T20:10:05.422922,1369657,1133,46,1425,-1067,-632,47,87,115,-29
15,0,2022-09-30T20:10:05.433368,1369667,1131,49,1428,-1085,-647,-51,87,115,-29
16,0,2022-09-30T20:10:05.441160,1369674,1131,49,1428,-1085,-647,-51,87,115,-29
17,0,2022-09-30T20:10:05.449665,1369682,1131,49,1432,-1107,-693,-83,87,115,-29
18,0,2022-09-30T20:10:05.457345,1369692,1131,49,1432,-1107,-693,-83,87,115,-29
19,0,2022-09-30T20:10:05.464960,1369699,1136,44,1429,-1097,-680,-59,87,115,-29
20,0,2022-09-30T20:10:05.472634,1369707,1136,44,1429,-1097,-680,-59,87,115,-29
21,0,2022-09-30T20:10:05.480223,1369714,1136,44,1429,-1097,-680,-59,87,115,-29
22,0,2022-09-30T20:10:05.487922,1369721,1137,40,1430,-1071,-633,-23,87,115,-29
23,0,2022-09-30T20:10:05.500879,1369732,1137,40,1430,-1071,-633,-23,87,115,-29
24,0,2022-09-30T20:10:05.508229,1369742,1139,29,1427,-1071,-628,-10,87,115,-29
25,0,2022-09-30T20:10:05.518788,1369752,1139,29,1427,-1071,-628,-10,87,115,-29
26,0,2022-09-30T20:10:05.526490,1369760,1136,30,1422,-1106,-665,-58,87,115,-29
27,0,2022-09-30T20:10:05.534185,1369768,1136,30,1422,-1106,-665,-58,87,115,-29
28,0,2022-09-30T20:10:05.541820,1369776,1136,30,1422,-1106,-665,-58,87,115,-29
29,0,2022-09-30T20:10:05.548929,1369783,1137,30,1420,-1119,-667,-107,89,123,-27
30,0,2022-09-30T20:10:05.556992,1369791,1137,30,1420,-1119,-667,-107,89,123,-27
31,0,2022-09-30T20:10:05.564875,1369798,1135,32,1426,-1060,-654,-135,89,123,-27
32,0,2022-09-30T20:10:05.573151,1369806,1135,32,1426,-1060,-654,-135,89,123,-27
33,0,2022-09-30T20:10:05.580751,1369815,1135,32,1426,-1060,-654,-135,89,123,-27
34,0,2022-09-30T20:10:05.588457,1369823,1128,38,1417,-1008,-627,-158,89,123,-27
35,0,2022-09-30T20:10:05.599168,1369833,1128,38,1417,-1008,-627,-158,89,123,-27
36,0,2022-09-30T20:10:05.607228,1369841,1131,45,1410,-981,-627,-160,89,123,-27
37,0,2022-09-30T20:10:05.617651,1369851,1131,45,1410,-981,-627,-160,89,123,-27
38,0,2022-09-30T20:10:05.624791,1369859,1129,42,1415,-973,-605,-202,89,123,-27
39,0,2022-09-30T20:10:05.632833,1369866,1129,42,1415,-973,-605,-202,89,123,-27
40,0,2022-09-30T20:10:05.641514,1369875,1129,42,1415,-973,-605,-202,89,123,-27
41,0,2022-09-30T20:10:05.655291,1369886,1130,48,1414,-985,-602,-290,89,123,-27
42,0,2022-09-30T20:10:05.681420,1369899,1128,46,1422,-968,-595,-363,89,123,-27
43,0,2022-09-30T20:10:05.689944,1369923,1139,48,1430,-946,-571,-362,84,124,-30
44,0,2022-09-30T20:10:05.702858,1369936,1139,48,1430,-946,-571,-362,84,124,-30
45,0,2022-09-30T20:10:05.713659,1369948,1130,43,1431,-916,-522,-277,84,124,-30
46,0,2022-09-30T20:10:05.721101,1369955,1130,43,1431,-916,-522,-277,84,124,-30
47,0,2022-09-30T20:10:05.730008,1369962,1127,40,1428,-905,-502,-268,84,124,-30
48,0,2022-09-30T20:10:05.746295,1369980,1143,39,1417,-936,-518,-379,84,124,-30
49,0,2022-09-30T20:10:05.759171,1369994,1143,39,1417,-936,-518,-379,84,124,-30
50,0,2022-09-30T20:10:05.771714,1370005,1128,36,1421,-909,-526,-422,84,124,-30
51,0,2022-09-30T20:10:05.785346,1370019,1125,37,1428,-855,-468,-357,85,123,-27
52,0,2022-09-30T20:10:05.800427,1370035,1125,37,1428,-855,-468,-357,85,123,-27
53,0,2022-09-30T20:10:05.811423,1370046,1140,37,1427,-867,-473,-245,85,123,-27
54,0,2022-09-30T20:10:05.821976,1370056,1140,37,1427,-867,-473,-245,85,123,-27
55,0,2022-09-30T20:10:05.832380,1370066,1131,47,1419,-942,-518,-295,85,123,-27
56,0,2022-09-30T20:10:05.842353,1370077,1131,47,1419,-942,-518,-295,85,123,-27
57,0,2022-09-30T20:10:05.854095,1370088,1130,46,1423,-971,-479,-492,85,123,-27
58,0,2022-09-30T20:10:05.927751,1370098,1130,46,1423,-971,-479,-492,85,123,-27
59,0,2022-09-30T20:10:05.940472,1370174,1139,44,1436,-990,-463,-292,90,118,-24
60,0,2022-09-30T20:10:05.948922,1370182,1139,50,1428,-1026,-521,-316,90,118,-24
61,0,2022-09-30T20:10:05.960209,1370194,1139,50,1428,-1026,-521,-316,90,118,-24
62,0,2022-09-30T20:10:05.967952,1370202,1132,53,1432,-1042,-534,-351,90,118,-24
63,0,2022-09-30T20:10:05.978477,1370213,1132,53,1432,-1042,-534,-351,90,118,-24
64,0,2022-09-30T20:10:05.985860,1370220,1134,56,1431,-1030,-544,-343,90,118,-24
65,0,2022-09-30T20:10:05.996799,1370231,1134,56,1431,-1030,-544,-343,90,118,-24
66,0,2022-09-30T20:10:06.005030,1370238,1134,56,1431,-1030,-544,-343,90,118,-24
67,0,2022-09-30T20:10:06.012992,1370247,1134,47,1432,-984,-550,-261,90,118,-24
68,0,2022-09-30T20:10:06.023898,1370257,1134,47,1432,-984,-550,-261,90,118,-24
69,0,2022-09-30T20:10:06.031813,1370266,1131,38,1433,-955,-518,-169,90,118,-24
70,0,2022-09-30T20:10:06.042950,1370276,1131,38,1433,-955,-518,-169,90,118,-24
71,0,2022-09-30T20:10:06.058025,1370285,1131,45,1427,-948,-510,-197,86,118,-24
72,0,2022-09-30T20:10:06.066299,1370301,1119,45,1425,-939,-524,-307,86,118,-24
73,0,2022-09-30T20:10:06.077889,1370312,1119,45,1425,-939,-524,-307,86,118,-24
74,0,2022-09-30T20:10:06.085923,1370320,1115,47,1427,-989,-539,-439,86,118,-24
75,0,2022-09-30T20:10:06.099053,1370328,1115,47,1427,-989,-539,-439,86,118,-24
76,0,2022-09-30T20:10:06.106136,1370341,1117,49,1431,-1007,-463,-471,86,118,-24
77,0,2022-09-30T20:10:06.113796,1370348,1117,49,1431,-1007,-463,-471,86,118,-24
78,0,2022-09-30T20:10:06.121012,1370355,1117,49,1431,-1007,-463,-471,86,118,-24
79,0,2022-09-30T20:10:06.128115,1370362,1128,45,1438,-939,-416,-372,86,118,-24
80,0,2022-09-30T20:10:06.137683,1370372,1128,45,1438,-939,-416,-372,86,118,-24
81,0,2022-09-30T20:10:06.145859,1370380,1135,36,1436,-893,-406,-252,86,118,-24
82,0,2022-09-30T20:10:06.153544,1370388,1135,36,1436,-893,-406,-252,86,118,-24
83,0,2022-09-30T20:10:06.161083,1370395,1135,36,1436,-893,-406,-252,86,118,-24
84,0,2022-09-30T20:10:06.169323,1370403,1133,40,1433,-908,-406,-255,86,118,-24
85,0,2022-09-30T20:10:06.176623,1370411,1133,40,1433,-908,-406,-255,86,118,-24
86,0,2022-09-30T20:10:06.184046,1370418,1133,40,1433,-908,-406,-255,86,118,-24
87,0,2022-09-30T20:10:06.191253,1370426,1131,50,1435,-950,-423,-339,90,120,-24
88,0,2022-09-30T20:10:06.201408,1370436,1131,50,1435,-950,-423,-339,90,120,-24
89,0,2022-09-30T20:10:06.211116,1370445,1126,50,1432,-953,-464,-352,90,120,-24
90,0,2022-09-30T20:10:06.220668,1370455,1126,50,1432,-953,-464,-352,90,120,-24
91,0,2022-09-30T20:10:06.230662,1370465,1122,49,1441,-932,-521,-326,90,120,-24
92,0,2022-09-30T20:10:06.237755,1370472,1122,49,1441,-932,-521,-326,90,120,-24
93,0,2022-09-30T20:10:06.275511,1370479,1122,49,1441,-932,-521,-326,90,120,-24
94,0,2022-09-30T20:10:06.283722,1370518,1123,36,1443,-928,-496,-297,90,120,-24
95,0,2022-09-30T20:10:06.295765,1370529,1125,44,1434,-953,-449,-332,90,120,-24
96,0,2022-09-30T20:10:06.305456,1370540,1126,49,1440,-1007,-453,-328,81,119,-23
97,0,2022-09-30T20:10:06.316678,1370551,1126,49,1440,-1007,-453,-328,81,119,-23
98,0,2022-09-30T20:10:06.324959,1370559,1126,49,1440,-1007,-453,-328,81,119,-23
99,0,2022-09-30T20:10:06.332952,1370566,1118,47,1442,-1027,-475,-310,81,119,-23
100,0,2022-09-30T20:10:06.341834,1370576,1118,47,1442,-1027,-475,-310,81,119,-23
101,0,2022-09-30T20:10:06.349048,1370584,1116,44,1439,-1019,-497,-327,81,119,-23
102,0,2022-09-30T20:10:06.359207,1370593,1116,44,1439,-1019,-497,-327,81,119,-23
103,0,2022-09-30T20:10:06.368808,1370603,1116,45,1440,-975,-490,-345,81,119,-23
104,0,2022-09-30T20:10:06.378710,1370613,1116,45,1440,-975,-490,-345,81,119,-23
105,0,2022-09-30T20:10:06.386406,1370620,1117,47,1427,-970,-468,-357,81,119,-23
106,0,2022-09-30T20:10:06.396070,1370631,1117,47,1427,-970,-468,-357,81,119,-23
107,0,2022-09-30T20:10:06.403423,1370638,1117,47,1427,-970,-468,-357,81,119,-23
108,0,2022-09-30T20:10:06.411139,1370646,1120,53,1440,-963,-452,-389,81,119,-23
109,0,2022-09-30T20:10:06.420636,1370655,1120,53,1440,-963,-452,-389,81,119,-23
110,0,2022-09-30T20:10:06.430057,1370664,1123,57,1435,-971,-459,-416,81,119,-23
111,0,2022-09-30T20:10:06.440756,1370676,1123,57,1435,-971,-459,-416,81,119,-23
112,0,2022-09-30T20:10:06.450376,1370683,1123,51,1446,-991,-469,-440,85,117,-27
113,0,2022-09-30T20:10:06.459070,1370694,1123,51,1446,-991,-469,-440,85,117,-27
114,0,2022-09-30T20:10:06.465666,1370700,1123,48,1446,-997,-514,-403,85,117,-27
115,0,2022-09-30T20:10:06.475193,1370710,1123,48,1446,-997,-514,-403,85,117,-27
116,0,2022-09-30T20:10:06.482727,1370717,1123,48,1446,-997,-514,-403,85,117,-27
117,0,2022-09-30T20:10:06.489171,1370724,1117,48,1442,-959,-522,-324,85,117,-27
118,0,2022-09-30T20:10:06.498606,1370733,1117,48,1442,-959,-522,-324,85,117,-27
119,0,2022-09-30T20:10:06.506267,1370740,1113,50,1434,-907,-442,-329,85,117,-27
120,0,2022-09-30T20:10:06.515452,1370750,1113,50,1434,-907,-442,-329,85,117,-27
121,0,2022-09-30T20:10:06.522313,1370758,1113,50,1434,-907,-442,-329,85,117,-27
122,0,2022-09-30T20:10:06.529169,1370764,1119,51,1428,-900,-426,-411,85,117,-27
123,0,2022-09-30T20:10:06.539305,1370773,1119,51,1428,-900,-426,-411,85,117,-27
124,0,2022-09-30T20:10:06.558516,1370791,1130,53,1442,-944,-474,-439,85,117,-27
125,0,2022-09-30T20:10:06.573805,1370807,1121,46,1450,-969,-554,-275,84,114,-30
126,0,2022-09-30T20:10:06.588626,1370823,1129,41,1450,-886,-522,-57,84,114,-30
127,0,2022-09-30T20:10:06.604429,1370839,1129,41,1450,-886,-522,-57,84,114,-30
128,0,2022-09-30T20:10:06.616534,1370850,1132,41,1449,-872,-540,-20,84,114,-30
129,0,2022-09-30T20:10:06.626519,1370861,1123,47,1451,-856,-535,-69,84,114,-30
130,0,2022-09-30T20:10:06.642237,1370876,1123,47,1451,-856,-535,-69,84,114,-30
131,0,2022-09-30T20:10:06.651726,1370887,1120,51,1449,-810,-431,-30,84,114,-30
132,0,2022-09-30T20:10:06.675318,1370901,1124,51,1440,-797,-379,96,84,114,-30
133,0,2022-09-30T20:10:06.687561,1370921,1128,45,1434,-825,-466,168,80,114,-28
134,0,2022-09-30T20:10:06.708046,1370941,1112,35,1432,-954,-632,97,80,114,-28
135,0,2022-09-30T20:10:06.727923,1370959,1112,35,1432,-954,-632,97,80,114,-28
136,0,2022-09-30T20:10:06.748317,1370978,1096,39,1432,-1120,-763,-47,80,114,-28
137,0,2022-09-30T20:10:06.761121,1370994,1094,48,1436,-1147,-702,-161,80,114,-28
138,0,2022-09-30T20:10:06.771724,1371006,1112,48,1451,-1057,-597,-291,80,114,-28
139,0,2022-09-30T20:10:06.786052,1371017,1112,48,1451,-1057,-597,-291,80,114,-28
140,0,2022-09-30T20:10:06.799671,1371030,1130,53,1446,-970,-625,-265,80,114,-28
141,0,2022-09-30T20:10:06.810341,1371043,1118,49,1433,-842,-613,-83,80,114,-28
142,0,2022-09-30T20:10:06.825946,1371059,1118,49,1433,-842,-613,-83,80,114,-28
143,0,2022-09-30T20:10:06.837879,1371072,1108,51,1428,-754,-587,-32,82,118,-34
144,0,2022-09-30T20:10:06.852756,1371087,1106,56,1430,-839,-646,-81,82,118,-34
145,0,2022-09-30T20:10:06.866642,1371101,1099,61,1451,-989,-640,-224,82,118,-34
146,0,2022-09-30T20:10:06.879539,1371114,1099,61,1451,-989,-640,-224,82,118,-34
147,0,2022-09-30T20:10:06.888414,1371123,1127,57,1452,-999,-494,-353,82,118,-34
148,0,2022-09-30T20:10:06.899594,1371131,1127,57,1452,-999,-494,-353,82,118,-34
149,0,2022-09-30T20:10:06.907409,1371142,1139,54,1446,-948,-446,-326,82,118,-34
150,0,2022-09-30T20:10:06.921658,1371156,1139,54,1446,-948,-446,-326,82,118,-34
151,0,2022-09-30T20:10:06.934121,1371169,1122,52,1421,-940,-548,-219,82,118,-34
152,0,2022-09-30T20:10:06.949084,1371182,1111,41,1427,-975,-617,-147,91,109,-21
153,0,2022-09-30T20:10:06.965010,1371200,1111,41,1427,-975,-617,-147,91,109,-21
154,0,2022-09-30T20:10:06.976459,1371211,1099,36,1432,-1000,-637,-108,91,109,-21
155,0,2022-09-30T20:10:06.983647,1371218,1099,36,1432,-1000,-637,-108,91,109,-21
156,0,2022-09-30T20:10:06.991532,1371226,1103,42,1432,-912,-533,-181,91,109,-21
157,0,2022-09-30T20:10:07.003107,1371238,1103,42,1432,-912,-533,-181,91,109,-21
158,0,2022-09-30T20:10:07.013009,1371247,1122,42,1436,-848,-458,-348,91,109,-21
159,0,2022-09-30T20:10:07.027117,1371260,1120,50,1457,-947,-520,-387,91,109,-21
160,0,2022-09-30T20:10:07.040411,1371276,1120,50,1457,-947,-520,-387,91,109,-21
161,0,2022-09-30T20:10:07.053516,1371288,1119,54,1454,-995,-553,-278,91,109,-21
162,0,2022-09-30T20:10:07.067193,1371298,1119,54,1454,-995,-553,-278,91,109,-21
163,0,2022-09-30T20:10:07.081784,1371317,1131,54,1450,-910,-506,-174,91,109,-21
164,0,2022-09-30T20:10:07.092494,1371327,1125,56,1447,-959,-561,-190,92,120,-18
165,0,2022-09-30T20:10:07.102035,1371337,1125,56,1447,-959,-561,-190,92,120,-18
166,0,2022-09-30T20:10:07.111172,1371346,1116,50,1430,-1105,-644,-308,92,120,-18
167,0,2022-09-30T20:10:07.121184,1371355,1116,50,1430,-1105,-644,-308,92,120,-18
168,0,2022-09-30T20:10:07.130682,1371366,1113,41,1433,-1112,-627,-368,92,120,-18
169,0,2022-09-30T20:10:07.140092,1371374,1113,41,1433,-1112,-627,-368,92,120,-18
170,0,2022-09-30T20:10:07.152306,1371386,1112,43,1442,-1122,-639,-385,92,120,-18
171,0,2022-09-30T20:10:07.161340,1371396,1112,43,1442,-1122,-639,-385,92,120,-18
172,0,2022-09-30T20:10:07.170800,1371406,1113,42,1439,-1140,-631,-369,92,120,-18
173,0,2022-09-30T20:10:07.181293,1371416,1113,42,1439,-1140,-631,-369,92,120,-18
174,0,2022-09-30T20:10:07.191097,1371425,1116,39,1442,-1126,-607,-400,92,120,-18
175,0,2022-09-30T20:10:07.200472,1371436,1116,39,1442,-1126,-607,-400,92,120,-18
176,0,2022-09-30T20:10:07.217205,1371445,1114,41,1442,-1080,-576,-383,80,118,-24
177,0,2022-09-30T20:10:07.228759,1371463,1109,34,1440,-1031,-576,-295,80,118,-24
178,0,2022-09-30T20:10:07.236673,1371471,1109,34,1440,-1031,-576,-295,80,118,-24
179,0,2022-09-30T20:10:07.243047,1371478,1109,34,1440,-1031,-576,-295,80,118,-24
180,0,2022-09-30T20:10:07.252336,1371487,1105,45,1442,-1066,-592,-267,80,118,-24
181,0,2022-09-30T20:10:07.264016,1371499,1105,45,1442,-1066,-592,-267,80,118,-24
182,0,2022-09-30T20:10:07.272584,1371507,1101,62,1438,-1112,-597,-343,80,118,-24
183,0,2022-09-30T20:10:07.283135,1371518,1101,62,1438,-1112,-597,-343,80,118,-24
184,0,2022-09-30T20:10:07.302350,1371527,1103,69,1436,-1098,-563,-558,80,118,-24
185,0,2022-09-30T20:10:07.311498,1371546,1117,69,1435,-1076,-515,-751,80,118,-24
186,0,2022-09-30T20:10:07.324828,1371560,1117,69,1435,-1076,-515,-751,80,118,-24
187,0,2022-09-30T20:10:07.336315,1371571,1135,66,1437,-1116,-561,-723,80,118,-24
188,0,2022-09-30T20:10:07.345650,1371581,1135,66,1437,-1116,-561,-723,80,118,-24
189,0,2022-09-30T20:10:07.354346,1371589,1123,49,1439,-1137,-657,-475,86,108,-28
190,0,2022-09-30T20:10:07.363170,1371598,1123,49,1439,-1137,-657,-475,86,108,-28
191,0,2022-09-30T20:10:07.372341,1371608,1117,42,1433,-1068,-597,-266,86,108,-28
192,0,2022-09-30T20:10:07.380922,1371616,1117,42,1433,-1068,-597,-266,86,108,-28
193,0,2022-09-30T20:10:07.392056,1371627,1108,51,1430,-1029,-540,-379,86,108,-28
194,0,2022-09-30T20:10:07.401115,1371636,1108,51,1430,-1029,-540,-379,86,108,-28
195,0,2022-09-30T20:10:07.408102,1371642,1110,67,1424,-1048,-524,-703,86,108,-28
196,0,2022-09-30T20:10:07.416352,1371652,1110,67,1424,-1048,-524,-703,86,108,-28
197,0,2022-09-30T20:10:07.423045,1371658,1110,67,1424,-1048,-524,-703,86,108,-28
198,0,2022-09-30T20:10:07.432049,1371667,1106,69,1436,-1088,-487,-948,86,108,-28
199,0,2022-09-30T20:10:07.440535,1371675,1106,69,1436,-1088,-487,-948,86,108,-28
200,0,2022-09-30T20:10:07.449650,1371684,1115,58,1446,-1112,-410,-914,86,108,-28
201,0,2022-09-30T20:10:07.458100,1371694,1115,58,1446,-1112,-410,-914,86,108,-28
202,0,2022-09-30T20:10:07.467024,1371702,1123,46,1450,-1025,-380,-717,80,122,-18
203,0,2022-09-30T20:10:07.475087,1371710,1123,46,1450,-1025,-380,-717,80,122,-18
204,0,2022-09-30T20:10:07.482138,1371717,1123,46,1450,-1025,-380,-717,80,122,-18
205,0,2022-09-30T20:10:07.491503,1371725,1119,47,1440,-951,-470,-602,80,122,-18
206,0,2022-09-30T20:10:07.503460,1371738,1119,47,1440,-951,-470,-602,80,122,-18
207,0,2022-09-30T20:10:07.509679,1371745,1124,57,1441,-1023,-624,-577,80,122,-18
208,0,2022-09-30T20:10:07.517794,1371753,1124,57,1441,-1023,-624,-577,80,122,-18
209,0,2022-09-30T20:10:07.528122,1371763,1119,53,1428,-1115,-709,-616,80,122,-18
210,0,2022-09-30T20:10:07.539061,1371774,1119,53,1428,-1115,-709,-616,80,122,-18
211,0,2022-09-30T20:10:07.553140,1371788,1120,58,1451,-1060,-665,-670,80,122,-18
212,0,2022-09-30T20:10:07.564204,1371796,1120,58,1451,-1060,-665,-670,80,122,-18
213,0,2022-09-30T20:10:07.572500,1371806,1126,54,1454,-1023,-595,-558,80,122,-18
214,0,2022-09-30T20:10:07.581762,1371816,1126,54,1454,-1023,-595,-558,80,122,-18
215,0,2022-09-30T20:10:07.591845,1371827,1120,55,1450,-1005,-568,-447,87,121,-27
216,0,2022-09-30T20:10:07.600158,1371835,1120,55,1450,-1005,-568,-447,87,121,-27
217,0,2022-09-30T20:10:07.609303,1371844,1119,63,1438,-1017,-540,-412,87,121,-27
218,0,2022-09-30T20:10:07.621521,1371856,1119,63,1438,-1017,-540,-412,87,121,-27
219,0,2022-09-30T20:10:07.628267,1371864,1116,63,1430,-1046,-548,-493,87,121,-27
220,0,2022-09-30T20:10:07.640688,1371870,1116,63,1430,-1046,-548,-493,87,121,-27
221,0,2022-09-30T20:10:07.657021,1371882,1105,61,1431,-1052,-537,-572,87,121,-27
222,0,2022-09-30T20:10:07.672030,1371907,1109,58,1440,-1062,-564,-569,87,121,-27
223,0,2022-09-30T20:10:07.689012,1371922,1112,50,1442,-1061,-509,-521,87,121,-27
224,0,2022-09-30T20:10:07.700888,1371935,1112,50,1442,-1061,-509,-521,87,121,-27
225,0,2022-09-30T20:10:07.708166,1371942,1120,43,1443,-1034,-475,-463,87,121,-27
226,0,2022-09-30T20:10:07.714790,1371950,1120,43,1443,-1034,-475,-463,87,121,-27
227,0,2022-09-30T20:10:07.721056,1371957,1120,43,1443,-1034,-475,-463,87,121,-27
228,0,2022-09-30T20:10:07.742278,1371975,1121,42,1445,-1025,-493,-422,79,127,-27
229,0,2022-09-30T20:10:07.757688,1371992,1119,48,1446,-1057,-507,-411,79,127,-27
230,0,2022-09-30T20:10:07.768378,1372003,1110,51,1449,-1110,-555,-429,79,127,-27
231,0,2022-09-30T20:10:07.780538,1372015,1110,51,1449,-1110,-555,-429,79,127,-27
232,0,2022-09-30T20:10:07.790260,1372022,1111,52,1444,-1085,-577,-442,79,127,-27
233,0,2022-09-30T20:10:07.799144,1372034,1111,52,1444,-1085,-577,-442,79,127,-27
234,0,2022-09-30T20:10:07.811584,1372044,1120,48,1442,-997,-524,-418,79,127,-27
235,0,2022-09-30T20:10:07.825720,1372056,1120,48,1442,-997,-524,-418,79,127,-27
236,0,2022-09-30T20:10:07.835456,1372070,1120,50,1440,-974,-494,-379,79,127,-27
237,0,2022-09-30T20:10:07.842774,1372078,1120,50,1440,-974,-494,-379,79,127,-27
238,0,2022-09-30T20:10:07.852705,1372087,1114,58,1442,-1006,-525,-391,85,117,-27
239,0,2022-09-30T20:10:07.865868,1372100,1114,58,1442,-1006,-525,-391,85,117,-27
240,0,2022-09-30T20:10:07.877992,1372112,1119,65,1436,-1037,-556,-440,85,117,-27
241,0,2022-09-30T20:10:07.884569,1372120,1119,65,1436,-1037,-556,-440,85,117,-27
242,0,2022-09-30T20:10:07.891325,1372126,1108,69,1432,-1032,-555,-488,85,117,-27
243,0,2022-09-30T20:10:07.901178,1372136,1108,69,1432,-1032,-555,-488,85,117,-27
244,0,2022-09-30T20:10:07.910093,1372145,1116,69,1433,-1019,-541,-471,85,117,-27
245,0,2022-09-30T20:10:07.915909,1372151,1116,69,1433,-1019,-541,-471,85,117,-27
246,0,2022-09-30T20:10:07.923180,1372157,1116,69,1433,-1019,-541,-471,85,117,-27
247,0,2022-09-30T20:10:07.929357,1372165,1116,62,1441,-1001,-528,-434,85,117,-27
248,0,2022-09-30T20:10:07.945776,1372171,1116,62,1441,-1001,-528,-434,85,117,-27
249,0,2022-09-30T20:10:07.954965,1372189,1119,65,1437,-980,-531,-416,85,117,-27
250,0,2022-09-30T20:10:07.962343,1372196,1119,65,1437,-980,-531,-416,85,117,-27
251,0,2022-09-30T20:10:07.973086,1372207,1116,65,1432,-975,-555,-418,85,117,-27
252,0,2022-09-30T20:10:07.985019,1372220,1116,65,1432,-975,-555,-418,85,117,-27
253,0,2022-09-30T20:10:07.992133,1372227,1112,69,1439,-995,-559,-436,83,119,-25
254,0,2022-09-30T20:10:07.998628,1372233,1112,69,1439,-995,-559,-436,83,119,-25
255,0,2022-09-30T20:10:08.007861,1372242,1113,63,1440,-1027,-554,-451,83,119,-25
256,0,2022-09-30T20:10:08.016152,1372252,1113,63,1440,-1027,-554,-451,83,119,-25
257,0,2022-09-30T20:10:08.024474,1372258,1113,63,1440,-1027,-554,-451,83,119,-25
258,0,2022-09-30T20:10:08.034763,1372270,1118,61,1447,-1034,-554,-458,83,119,-25
259,0,2022-09-30T20:10:08.042992,1372278,1118,61,1447,-1034,-554,-458,83,119,-25
260,0,2022-09-30T20:10:08.053120,1372289,1129,54,1454,-1035,-584,-437,83,119,-25
261,0,2022-09-30T20:10:08.059593,1372295,1129,54,1454,-1035,-584,-437,83,119,-25
262,0,2022-09-30T20:10:08.069428,1372304,1112,51,1446,-1046,-596,-372,83,119,-25
263,0,2022-09-30T20:10:08.082480,1372317,1112,51,1446,-1046,-596,-372,83,119,-25
264,0,2022-09-30T20:10:08.093105,1372327,1115,61,1450,-1005,-559,-347,83,119,-25
265,0,2022-09-30T20:10:08.107604,1372342,1129,67,1444,-990,-566,-363,85,117,-25
266,0,2022-09-30T20:10:08.117989,1372353,1129,67,1444,-990,-566,-363,85,117,-27
267,0,2022-09-30T20:10:08.129967,1372365,1129,67,1444,-990,-566,-363,85,117,-27
268,0,2022-09-30T20:10:08.136586,1372371,1129,67,1444,-990,-566,-363,85,117,-27
269,0,2022-09-30T20:10:08.144932,1372379,1129,67,1444,-990,-566,-363,85,117,-27
270,0,2022-09-30T20:10:08.158197,1372393,1114,55,1445,-1056,-711,-162,85,117,-27
271,0,2022-09-30T20:10:08.172881,1372406,1102,55,1438,-965,-656,-81,85,117,-27
272,0,2022-09-30T20:10:08.183877,1372419,1102,55,1438,-965,-656,-81,85,117,-27
273,0,2022-09-30T20:10:08.193004,1372428,1116,72,1433,-963,-605,-223,85,117,-27
274,0,2022-09-30T20:10:08.201203,1372437,1116,72,1433,-963,-605,-223,85,117,-27
275,0,2022-09-30T20:10:08.212030,1372446,1120,84,1444,-997,-596,-423,85,117,-27
276,0,2022-09-30T20:10:08.224102,1372459,1120,84,1444,-997,-596,-423,85,117,-27
277,0,2022-09-30T20:10:08.235234,1372469,1121,78,1450,-1005,-591,-444,82,118,-28
278,0,2022-09-30T20:10:08.247309,1372481,1121,78,1450,-1005,-591,-444,82,118,-28
279,0,2022-09-30T20:10:08.256342,1372491,1117,64,1460,-996,-600,-245,82,118,-28
280,0,2022-09-30T20:10:08.264779,1372499,1117,64,1460,-996,-600,-245,82,118,-28
281,0,2022-09-30T20:10:08.272169,1372507,1117,52,1441,-974,-618,-53,82,118,-28
282,0,2022-09-30T20:10:08.282634,1372518,1117,52,1441,-974,-618,-53,82,118,-28
283,0,2022-09-30T20:10:08.291640,1372526,1110,47,1438,-948,-605,-38,82,118,-28
284,0,2022-09-30T20:10:08.298035,1372533,1110,47,1438,-948,-605,-38,82,118,-28
285,0,2022-09-30T20:10:08.304411,1372539,1110,47,1438,-948,-605,-38,82,118,-28
286,0,2022-09-30T20:10:08.312260,1372546,1111,62,1436,-1028,-617,-107,82,118,-28
287,0,2022-09-30T20:10:08.321093,1372556,1111,62,1436,-1028,-617,-107,82,118,-28
288,0,2022-09-30T20:10:08.331289,1372566,1117,68,1443,-1112,-668,-130,82,118,-28
289,0,2022-09-30T20:10:08.338438,1372574,1117,68,1443,-1112,-668,-130,82,118,-28
290,0,2022-09-30T20:10:08.346376,1372580,1117,68,1443,-1112,-668,-130,82,118,-28
291,0,2022-09-30T20:10:08.353375,1372589,1117,69,1440,-1064,-687,-74,82,118,-28
292,0,2022-09-30T20:10:08.363386,1372598,1117,69,1440,-1064,-687,-74,82,118,-28
293,0,2022-09-30T20:10:08.374320,1372607,1126,64,1448,-953,-624,-11,84,110,-30
294,0,2022-09-30T20:10:08.385833,1372620,1126,64,1448,-953,-624,-11,84,110,-30
295,0,2022-09-30T20:10:08.401081,1372632,1124,52,1451,-900,-596,31,84,110,-30
296,0,2022-09-30T20:10:08.409913,1372645,1117,60,1435,-906,-684,-19,84,110,-30
297,0,2022-09-30T20:10:08.422796,1372657,1117,60,1435,-906,-684,-19,84,110,-30
298,0,2022-09-30T20:10:08.433761,1372668,1110,56,1432,-963,-718,-81,84,110,-30
299,0,2022-09-30T20:10:08.446058,1372680,1110,56,1432,-963,-718,-81,84,110,-30
300,0,2022-09-30T20:10:08.458096,1372693,1112,54,1439,-1000,-695,-153,84,110,-30
301,0,2022-09-30T20:10:08.469752,1372704,1121,51,1448,-1020,-632,-191,84,110,-30
302,0,2022-09-30T20:10:08.483523,1372718,1121,51,1448,-1020,-632,-191,84,110,-30
303,0,2022-09-30T20:10:08.492244,1372726,1128,46,1442,-1022,-636,-152,73,119,-25
304,0,2022-09-30T20:10:08.506488,1372741,1128,46,1442,-1022,-636,-152,73,119,-25
305,0,2022-09-30T20:10:08.519583,1372754,1125,41,1445,-970,-623,-45,73,119,-25
306,0,2022-09-30T20:10:08.535750,1372769,1116,50,1434,-970,-713,7,73,119,-25
307,0,2022-09-30T20:10:08.544116,1372779,1116,50,1434,-970,-713,7,73,119,-25
308,0,2022-09-30T20:10:08.553849,1372789,1114,56,1426,-1029,-712,20,73,119,-25
309,0,2022-09-30T20:10:08.564764,1372800,1114,56,1426,-1029,-712,20,73,119,-25
310,0,2022-09-30T20:10:08.574074,1372809,1111,59,1427,-1031,-654,-59,73,119,-25
311,0,2022-09-30T20:10:08.586678,1372822,1111,59,1427,-1031,-654,-59,73,119,-25
312,0,2022-09-30T20:10:08.598523,1372833,1119,60,1430,-1000,-619,-136,73,119,-25
313,0,2022-09-30T20:10:08.608774,1372844,1121,58,1436,-986,-630,-124,73,119,-25
314,0,2022-09-30T20:10:08.620728,1372855,1121,58,1436,-986,-630,-124,73,119,-25
315,0,2022-09-30T20:10:08.630728,1372866,1122,54,1440,-950,-609,-101,80,122,-30
316,0,2022-09-30T20:10:08.639109,1372874,1122,54,1440,-950,-609,-101,80,122,-30
317,0,2022-09-30T20:10:08.647687,1372882,1121,50,1442,-946,-599,-99,80,122,-30
318,0,2022-09-30T20:10:08.655988,1372892,1121,50,1442,-946,-599,-99,80,122,-30
319,0,2022-09-30T20:10:08.663350,1372898,1121,50,1442,-946,-599,-99,80,122,-30
320,0,2022-09-30T20:10:08.675584,1372908,1118,53,1435,-968,-592,-105,80,122,-30
321,0,2022-09-30T20:10:08.686113,1372921,1118,53,1435,-968,-592,-105,80,122,-30
322,0,2022-09-30T20:10:08.698088,1372933,1122,52,1440,-948,-533,-126,80,122,-30
323,0,2022-09-30T20:10:08.707089,1372942,1122,52,1440,-948,-533,-126,80,122,-30
324,0,2022-09-30T20:10:08.717886,1372953,1118,54,1441,-929,-569,-123,80,122,-30
325,0,2022-09-30T20:10:08.727418,1372962,1118,54,1441,-929,-569,-123,80,122,-30
326,0,2022-09-30T20:10:08.738822,1372973,1119,49,1435,-963,-647,-100,80,122,-30
327,0,2022-09-30T20:10:08.750443,1372985,1118,45,1435,-987,-653,-81,84,122,-38
328,0,2022-09-30T20:10:08.761117,1372996,1118,45,1435,-987,-653,-81,84,122,-38
329,0,2022-09-30T20:10:08.771168,1373005,1116,47,1440,-975,-620,-111,84,122,-38
330,0,2022-09-30T20:10:08.782218,1373018,1116,47,1440,-975,-620,-111,84,122,-38
331,0,2022-09-30T20:10:08.788373,1373024,1116,46,1436,-964,-587,-162,84,122,-38
332,0,2022-09-30T20:10:08.794646,1373029,1116,46,1436,-964,-587,-162,84,122,-38
333,0,2022-09-30T20:10:08.802160,1373037,1116,46,1436,-964,-587,-162,84,122,-38
334,0,2022-09-30T20:10:08.810664,1373046,1122,52,1438,-960,-564,-184,84,122,-38
335,0,2022-09-30T20:10:08.818979,1373053,1122,52,1438,-960,-564,-184,84,122,-38
336,0,2022-09-30T20:10:08.829215,1373064,1127,51,1430,-993,-550,-200,84,122,-38
337,0,2022-09-30T20:10:08.841012,1373076,1127,51,1430,-993,-550,-200,84,122,-38
338,0,2022-09-30T20:10:08.849824,1373084,1124,56,1434,-1018,-578,-180,84,122,-38
339,0,2022-09-30T20:10:08.858174,1373093,1124,56,1434,-1018,-578,-180,84,122,-38
340,0,2022-09-30T20:10:08.867720,1373103,1124,56,1434,-1018,-578,-180,84,122,-38
341,0,2022-09-30T20:10:08.874571,1373110,1120,50,1437,-1015,-633,-139,84,122,-38
342,0,2022-09-30T20:10:08.884191,1373119,1120,50,1437,-1015,-633,-139,84,122,-38
343,0,2022-09-30T20:10:08.891852,1373127,1114,48,1441,-984,-632,-127,92,120,-28
344,0,2022-09-30T20:10:08.902436,1373137,1114,48,1441,-984,-632,-127,92,120,-28
345,0,2022-09-30T20:10:08.909375,1373145,1116,53,1434,-990,-577,-172,92,120,-28
346,0,2022-09-30T20:10:08.921213,1373155,1116,53,1434,-990,-577,-172,92,120,-28
347,0,2022-09-30T20:10:08.932493,1373168,1139,47,1429,-992,-552,-262,92,120,-28
348,0,2022-09-30T20:10:08.938738,1373173,1139,47,1429,-992,-552,-262,92,120,-28
349,0,2022-09-30T20:10:08.949229,1373184,1130,45,1434,-1000,-633,-178,92,120,-28
350,0,2022-09-30T20:10:08.960054,1373195,1130,45,1434,-1000,-633,-178,92,120,-28
351,0,2022-09-30T20:10:08.968931,1373204,1106,45,1432,-980,-676,-30,92,120,-28
352,0,2022-09-30T20:10:08.981927,1373217,1106,45,1432,-980,-676,-30,92,120,-28
353,0,2022-09-30T20:10:08.990290,1373225,1107,59,1427,-919,-588,-98,92,120,-28
354,0,2022-09-30T20:10:09.001181,1373237,1107,59,1427,-919,-588,-98,92,120,-28
355,0,2022-09-30T20:10:09.009455,1373245,1113,69,1440,-933,-552,-341,88,114,-24
356,0,2022-09-30T20:10:09.017950,1373253,1113,69,1440,-933,-552,-341,88,114,-24
357,0,2022-09-30T20:10:09.025122,1373259,1113,69,1440,-933,-552,-341,88,114,-24
358,0,2022-09-30T20:10:09.031328,1373266,1123,62,1447,-951,-551,-468,88,114,-24
359,0,2022-09-30T20:10:09.041219,1373277,1123,62,1447,-951,-551,-468,88,114,-24
360,0,2022-09-30T20:10:09.050984,1373284,1125,54,1452,-994,-556,-358,88,114,-24
361,0,2022-09-30T20:10:09.058689,1373294,1125,54,1452,-994,-556,-358,88,114,-24
362,0,2022-09-30T20:10:09.066235,1373302,1125,54,1452,-994,-556,-358,88,114,-24
363,0,2022-09-30T20:10:09.073544,1373307,1124,44,1436,-1018,-537,-207,88,114,-24
364,0,2022-09-30T20:10:09.083311,1373318,1124,44,1436,-1018,-537,-207,88,114,-24
365,0,2022-09-30T20:10:09.092398,1373328,1117,42,1422,-1030,-523,-203,88,114,-24
366,0,2022-09-30T20:10:09.109817,1373345,1118,46,1432,-1081,-576,-293,88,114,-24
367,0,2022-09-30T20:10:09.116068,1373351,1118,46,1432,-1081,-576,-293,88,114,-24
368,0,2022-09-30T20:10:09.122879,1373358,1118,46,1432,-1081,-576,-293,88,114,-24
369,0,2022-09-30T20:10:09.129655,1373365,1118,53,1428,-1113,-595,-369,84,116,-18
370,0,2022-09-30T20:10:09.140530,1373376,1118,53,1428,-1113,-595,-369,84,116,-18
371,0,2022-09-30T20:10:09.149499,1373384,1126,51,1447,-1057,-564,-382,84,116,-18
372,0,2022-09-30T20:10:09.160700,1373395,1126,51,1447,-1057,-564,-382,84,116,-18
373,0,2022-09-30T20:10:09.171780,1373404,1130,38,1444,-999,-585,-333,84,116,-18
374,0,2022-09-30T20:10:09.182928,1373418,1130,38,1444,-999,-585,-333,84,116,-18
375,0,2022-09-30T20:10:09.193788,1373429,1121,37,1436,-974,-604,-233,84,116,-18
376,0,2022-09-30T20:10:09.205421,1373441,1121,37,1436,-974,-604,-233,84,116,-18
377,0,2022-09-30T20:10:09.215678,1373452,1115,40,1427,-1012,-628,-239,84,116,-18
378,0,2022-09-30T20:10:09.228902,1373464,1116,49,1422,-1042,-616,-363,84,116,-18
379,0,2022-09-30T20:10:09.239180,1373474,1116,49,1422,-1042,-616,-363,84,116,-18
380,0,2022-09-30T20:10:09.248433,1373484,1116,49,1422,-1042,-616,-363,84,116,-18
381,0,2022-09-30T20:10:09.257770,1373491,1121,54,1434,-1065,-606,-473,84,116,-18
382,0,2022-09-30T20:10:09.266759,1373501,1121,54,1434,-1065,-606,-473,84,116,-18
383,0,2022-09-30T20:10:09.273320,1373508,1124,58,1446,-1076,-577,-505,84,118,-30
384,0,2022-09-30T20:10:09.282547,1373517,1124,58,1446,-1076,-577,-505,84,118,-30
385,0,2022-09-30T20:10:09.289063,1373523,1135,51,1450,-1026,-545,-453,84,118,-30
386,0,2022-09-30T20:10:09.300721,1373536,1135,51,1450,-1026,-545,-453,84,118,-30
387,0,2022-09-30T20:10:09.309276,1373544,1134,49,1437,-977,-565,-364,84,118,-30
388,0,2022-09-30T20:10:09.317608,1373552,1134,49,1437,-977,-565,-364,84,118,-30
389,0,2022-09-30T20:10:09.324765,1373559,1134,49,1437,-977,-565,-364,84,118,-30
390,0,2022-09-30T20:10:09.335003,1373570,1125,55,1437,-973,-595,-304,84,118,-30
391,0,2022-09-30T20:10:09.343261,1373579,1125,55,1437,-973,-595,-304,84,118,-30
392,0,2022-09-30T20:10:09.352593,1373587,1121,54,1428,-1019,-609,-276,84,118,-30
393,0,2022-09-30T20:10:09.364749,1373600,1121,54,1428,-1019,-609,-276,84,118,-30
394,0,2022-09-30T20:10:09.373511,1373608,1123,46,1432,-1052,-583,-290,84,118,-30
395,0,2022-09-30T20:10:09.381684,1373617,1123,46,1432,-1052,-583,-290,84,118,-30
396,0,2022-09-30T20:10:09.391123,1373626,1115,42,1438,-1053,-539,-326,93,125,-17
397,0,2022-09-30T20:10:09.397400,1373632,1115,42,1438,-1053,-539,-326,93,125,-17
398,0,2022-09-30T20:10:09.406178,1373641,1115,42,1438,-1053,-539,-326,93,125,-17
399,0,2022-09-30T20:10:09.421712,1373650,1119,38,1440,-1053,-536,-365,93,125,-17
400,0,2022-09-30T20:10:09.431341,1373666,1120,41,1438,-1012,-510,-386,93,125,-17
401,0,2022-09-30T20:10:09.439487,1373674,1120,41,1438,-1012,-510,-386,93,125,-17
402,0,2022-09-30T20:10:09.449195,1373684,1121,51,1436,-1000,-498,-383,93,125,-17
403,0,2022-09-30T20:10:09.457534,1373692,1121,51,1436,-1000,-498,-383,93,125,-17
404,0,2022-09-30T20:10:09.464326,1373700,1121,51,1436,-1000,-498,-383,93,125,-17
405,0,2022-09-30T20:10:09.472833,1373708,1118,52,1437,-1025,-501,-389,93,125,-17
406,0,2022-09-30T20:10:09.484222,1373719,1118,52,1437,-1025,-501,-389,93,125,-17
407,0,2022-09-30T20:10:09.493698,1373729,1121,50,1438,-1041,-519,-410,93,125,-17
408,0,2022-09-30T20:10:09.510664,1373745,1123,49,1438,-1039,-533,-402,93,125,-17
409,0,2022-09-30T20:10:09.521546,1373757,1123,49,1438,-1039,-533,-402,93,125,-17
410,0,2022-09-30T20:10:09.530909,1373766,1110,49,1436,-1041,-533,-399,91,117,-21
411,0,2022-09-30T20:10:09.541975,1373777,1110,49,1436,-1041,-533,-399,91,117,-21
412,0,2022-09-30T20:10:09.549299,1373784,1110,49,1436,-1041,-533,-399,91,117,-21
413,0,2022-09-30T20:10:09.560188,1373795,1112,53,1435,-1049,-472,-470,91,117,-21
414,0,2022-09-30T20:10:09.571402,1373805,1119,61,1430,-1050,-471,-593,91,117,-21
415,0,2022-09-30T20:10:09.579744,1373815,1119,61,1430,-1050,-471,-593,91,117,-21
416,0,2022-09-30T20:10:09.585872,1373821,1119,61,1430,-1050,-471,-593,91,117,-21
417,0,2022-09-30T20:10:09.593402,1373829,1142,51,1450,-1055,-519,-623,91,117,-21
418,0,2022-09-30T20:10:09.599692,1373835,1142,51,1450,-1055,-519,-623,91,117,-21
419,0,2022-09-30T20:10:09.611628,1373841,1142,51,1450,-1055,-519,-623,91,117,-21
420,0,2022-09-30T20:10:09.617833,1373853,1129,43,1446,-1081,-573,-459,91,117,-21
421,0,2022-09-30T20:10:09.630014,1373865,1115,40,1436,-1035,-575,-283,91,117,-21
422,0,2022-09-30T20:10:09.640252,1373876,1115,40,1436,-1035,-575,-283,91,117,-21
423,0,2022-09-30T20:10:09.649340,1373884,1116,52,1433,-973,-505,-300,84,116,-32
424,0,2022-09-30T20:10:09.662022,1373897,1116,52,1433,-973,-505,-300,84,116,-32
425,0,2022-09-30T20:10:09.671293,1373905,1108,66,1431,-1003,-511,-516,84,116,-32
426,0,2022-09-30T20:10:09.684480,1373920,1108,66,1431,-1003,-511,-516,84,116,-32
427,0,2022-09-30T20:10:09.695033,1373930,1116,66,1436,-1056,-496,-755,84,116,-32
428,0,2022-09-30T20:10:09.708490,1373943,1116,66,1436,-1056,-496,-755,84,116,-32
429,0,2022-09-30T20:10:09.715032,1373950,1117,58,1444,-1076,-448,-792,84,116,-32
430,0,2022-09-30T20:10:09.722953,1373957,1117,58,1444,-1076,-448,-792,84,116,-32
431,0,2022-09-30T20:10:09.736320,1373971,1118,47,1441,-1040,-406,-626,84,116,-32
432,0,2022-09-30T20:10:09.747297,1373982,1118,47,1441,-1040,-406,-626,84,116,-32
433,0,2022-09-30T20:10:09.759703,1373995,1122,39,1437,-1033,-428,-466,84,116,-32
434,0,2022-09-30T20:10:09.772324,1374007,1116,45,1441,-1083,-471,-413,84,116,-32
435,0,2022-09-30T20:10:09.785073,1374020,1116,45,1441,-1083,-471,-413,84,116,-32
436,0,2022-09-30T20:10:09.791950,1374027,1116,53,1444,-1138,-504,-453,85,121,-35
437,0,2022-09-30T20:10:09.803653,1374039,1116,53,1444,-1138,-504,-453,85,121,-35
438,0,2022-09-30T20:10:09.812325,1374048,1118,61,1446,-1169,-547,-511,85,121,-35
439,0,2022-09-30T20:10:09.823341,1374058,1118,61,1446,-1169,-547,-511,85,121,-35
440,0,2022-09-30T20:10:09.836130,1374071,1115,52,1444,-1137,-578,-509,85,121,-35
441,0,2022-09-30T20:10:09.844650,1374080,1115,52,1444,-1137,-578,-509,85,121,-35
442,0,2022-09-30T20:10:09.852926,1374088,1117,47,1444,-1050,-550,-413,85,121,-35
443,0,2022-09-30T20:10:09.861043,1374096,1117,47,1444,-1050,-550,-413,85,121,-35
444,0,2022-09-30T20:10:09.871465,1374106,1121,49,1436,-1019,-543,-390,85,121,-35
445,0,2022-09-30T20:10:09.880628,1374115,1121,49,1436,-1019,-543,-390,85,121,-35
446,0,2022-09-30T20:10:09.891230,1374127,1117,55,1436,-1048,-536,-462,85,121,-35
447,0,2022-09-30T20:10:09.900183,1374135,1117,55,1436,-1048,-536,-462,85,121,-35
448,0,2022-09-30T20:10:09.907459,1374143,1117,55,1436,-1048,-536,-462,85,121,-35
449,0,2022-09-30T20:10:09.917030,1374149,1110,55,1436,-1073,-563,-587,87,117,-25
450,0,2022-09-30T20:10:09.928199,1374163,1110,55,1436,-1073,-563,-587,87,117,-25
451,0,2022-09-30T20:10:09.939812,1374174,1109,60,1444,-1089,-538,-598,87,117,-25
452,0,2022-09-30T20:10:09.953048,1374187,1115,54,1450,-1067,-519,-532,87,117,-25
453,0,2022-09-30T20:10:09.963966,1374199,1115,54,1450,-1067,-519,-532,87,117,-25
454,0,2022-09-30T20:10:09.975677,1374210,1119,46,1432,-995,-496,-438,87,117,-25
455,0,2022-09-30T20:10:09.987583,1374223,1119,46,1432,-995,-496,-438,87,117,-25
456,0,2022-09-30T20:10:09.999780,1374234,1127,51,1437,-978,-497,-369,87,117,-25
457,0,2022-09-30T20:10:10.014560,1374249,1116,54,1442,-1022,-566,-340,87,117,-25
458,0,2022-09-30T20:10:10.024836,1374259,1116,54,1442,-1022,-566,-340,87,117,-25
459,0,2022-09-30T20:10:10.033804,1374269,1107,55,1439,-1046,-564,-402,90,122,-28
460,0,2022-09-30T20:10:10.044723,1374280,1107,55,1439,-1046,-564,-402,90,122,-28
461,0,2022-09-30T20:10:10.059098,1374295,1117,52,1445,-1031,-506,-471,90,122,-28
462,0,2022-09-30T20:10:10.070035,1374305,1124,48,1443,-996,-497,-451,90,122,-28
463,0,2022-09-30T20:10:10.085233,1374320,1124,48,1443,-996,-497,-451,90,122,-28
464,0,2022-09-30T20:10:10.102624,1374331,1120,50,1441,-983,-496,-390,90,122,-28
465,0,2022-09-30T20:10:10.114606,1374350,1119,52,1440,-993,-519,-350,90,122,-28
466,0,2022-09-30T20:10:10.129160,1374364,1119,52,1440,-993,-519,-350,90,122,-28
467,0,2022-09-30T20:10:10.141180,1374375,1113,53,1437,-1015,-599,-365,90,122,-28
468,0,2022-09-30T20:10:10.153273,1374389,1111,50,1438,-1014,-618,-392,90,122,-28
469,0,2022-09-30T20:10:10.160863,1374397,1111,50,1438,-1014,-618,-392,90,122,-28
470,0,2022-09-30T20:10:10.169614,1374405,1103,48,1445,-996,-589,-419,85,121,-31
471,0,2022-09-30T20:10:10.181846,1374417,1103,48,1445,-996,-589,-419,85,121,-31
472,0,2022-09-30T20:10:10.190841,1374426,1119,51,1444,-979,-587,-409,85,121,-31
473,0,2022-09-30T20:10:10.200567,1374435,1119,51,1444,-979,-587,-409,85,121,-31
474,0,2022-09-30T20:10:10.214303,1374450,1125,58,1442,-955,-562,-363,85,121,-31
475,0,2022-09-30T20:10:10.223111,1374458,1125,58,1442,-955,-562,-363,85,121,-31
476,0,2022-09-30T20:10:10.228996,1374465,1118,58,1444,-939,-564,-339,85,121,-31
477,0,2022-09-30T20:10:10.240967,1374473,1118,58,1444,-939,-564,-339,85,121,-31
478,0,2022-09-30T20:10:10.249032,1374485,1117,56,1442,-975,-594,-357,85,121,-31
479,0,2022-09-30T20:10:10.258224,1374494,1117,56,1442,-975,-594,-357,85,121,-31
480,0,2022-09-30T20:10:10.264206,1374499,1117,56,1442,-975,-594,-357,85,121,-31
481,0,2022-09-30T20:10:10.271992,1374507,1115,60,1440,-997,-592,-361,85,121,-31
482,0,2022-09-30T20:10:10.279131,1374515,1115,60,1440,-997,-592,-361,85,121,-31
483,0,2022-09-30T20:10:10.287608,1374523,1115,60,1440,-997,-592,-361,85,121,-31
484,0,2022-09-30T20:10:10.294244,1374529,1118,57,1443,-977,-583,-327,83,117,-27
485,0,2022-09-30T20:10:10.310909,1374541,1118,57,1443,-977,-583,-327,83,117,-27
486,0,2022-09-30T20:10:10.317181,1374553,1117,57,1448,-958,-585,-297,83,117,-27
487,0,2022-09-30T20:10:10.326814,1374562,1117,57,1448,-958,-585,-297,83,117,-27
488,0,2022-09-30T20:10:10.337170,1374572,1116,56,1444,-954,-576,-286,83,117,-27
489,0,2022-09-30T20:10:10.346185,1374580,1116,56,1444,-954,-576,-286,83,117,-27
490,0,2022-09-30T20:10:10.360890,1374597,1117,55,1439,-966,-542,-326,83,117,-27
491,0,2022-09-30T20:10:10.372996,1374607,1117,62,1437,-966,-547,-337,83,117,-27
492,0,2022-09-30T20:10:10.383095,1374618,1117,62,1437,-966,-547,-337,83,117,-27
493,0,2022-09-30T20:10:10.391629,1374627,1117,63,1442,-957,-538,-290,83,117,-27
494,0,2022-09-30T20:10:10.399948,1374632,1117,63,1442,-957,-538,-290,83,117,-27
495,0,2022-09-30T20:10:10.407142,1374642,1117,63,1442,-957,-538,-290,83,117,-27
496,0,2022-09-30T20:10:10.416918,1374652,1105,68,1439,-946,-596,-266,83,117,-27
497,0,2022-09-30T20:10:10.433718,1374668,1107,63,1443,-944,-545,-304,92,114,-30
498,0,2022-09-30T20:10:10.446115,1374681,1107,63,1443,-944,-545,-304,92,114,-30
499,0,2022-09-30T20:10:10.455181,1374691,1125,66,1443,-953,-541,-388,92,114,-30
500,0,2022-09-30T20:10:10.466689,1374702,1125,66,1443,-953,-541,-388,92,114,-30
501,0,2022-09-30T20:10:10.481964,1374717,1121,56,1448,-1017,-653,-374,92,114,-30
502,0,2022-09-30T20:10:10.492896,1374728,1115,48,1453,-984,-640,-208,92,114,-30
503,0,2022-09-30T20:10:10.505262,1374740,1115,48,1453,-984,-640,-208,92,114,-30
504,0,2022-09-30T20:10:10.511491,1374747,1116,56,1449,-955,-552,-164,92,114,-30
505,0,2022-09-30T20:10:10.522935,1374755,1116,56,1449,-955,-552,-164,92,114,-30
506,0,2022-09-30T20:10:10.533211,1374769,1120,74,1423,-949,-554,-303,92,114,-30
507,0,2022-09-30T20:10:10.541456,1374777,1120,74,1423,-949,-554,-303,92,114,-30
508,0,2022-09-30T20:10:10.551826,1374787,1117,71,1447,-949,-538,-411,79,123,-31
509,0,2022-09-30T20:10:10.563394,1374799,1117,71,1447,-949,-538,-411,79,123,-31
510,0,2022-09-30T20:10:10.575619,1374810,1115,63,1447,-1033,-617,-368,79,123,-31
511,0,2022-09-30T20:10:10.583478,1374819,1115,63,1447,-1033,-617,-368,79,123,-31
512,0,2022-09-30T20:10:10.592267,1374828,1130,51,1448,-1042,-618,-260,79,123,-31
513,0,2022-09-30T20:10:10.603202,1374838,1130,51,1448,-1042,-618,-260,79,123,-31
514,0,2022-09-30T20:10:10.612586,1374848,1131,41,1440,-1004,-597,-184,79,123,-31
515,0,2022-09-30T20:10:10.629843,1374857,1131,41,1440,-1004,-597,-184,79,123,-31
516,0,2022-09-30T20:10:10.635577,1374871,1121,56,1445,-1039,-579,-201,79,123,-31
517,0,2022-09-30T20:10:10.641236,1374876,1121,56,1445,-1039,-579,-201,79,123,-31
518,0,2022-09-30T20:10:10.649931,1374885,1121,72,1427,-1118,-633,-219,79,123,-31
519,0,2022-09-30T20:10:10.660462,1374896,1121,72,1427,-1118,-633,-219,79,123,-31
520,0,2022-09-30T20:10:10.669474,1374905,1121,72,1427,-1118,-633,-219,79,123,-31
521,0,2022-09-30T20:10:10.684958,1374920,1124,68,1444,-1120,-652,-159,79,123,-31
522,0,2022-09-30T20:10:10.691142,1374926,1119,59,1453,-1032,-703,-78,92,118,-20
523,0,2022-09-30T20:10:10.706122,1374941,1119,59,1453,-1032,-703,-78,92,118,-20
524,0,2022-09-30T20:10:10.716568,1374952,1115,49,1446,-982,-697,-39,92,118,-20
525,0,2022-09-30T20:10:10.731712,1374966,1118,47,1439,-957,-604,-66,92,118,-20
526,0,2022-09-30T20:10:10.742015,1374978,1118,47,1439,-957,-604,-66,92,118,-20
527,0,2022-09-30T20:10:10.754865,1374990,1120,48,1433,-986,-590,-112,92,118,-20
528,0,2022-09-30T20:10:10.766883,1374998,1120,48,1433,-986,-590,-112,92,118,-20
529,0,2022-09-30T20:10:10.774966,1375008,1116,53,1437,-1040,-668,-152,92,118,-20
530,0,2022-09-30T20:10:10.785345,1375020,1116,53,1437,-1040,-668,-152,92,118,-20
531,0,2022-09-30T20:10:10.797437,1375032,1116,56,1437,-1034,-714,-165,92,118,-20
532,0,2022-09-30T20:10:10.805646,1375041,1116,56,1437,-1034,-714,-165,92,118,-20
533,0,2022-09-30T20:10:10.815918,1375051,1117,58,1445,-1013,-698,-142,81,119,-21
534,0,2022-09-30T20:10:10.825791,1375057,1117,58,1445,-1013,-698,-142,81,119,-21
535,0,2022-09-30T20:10:10.836185,1375072,1123,49,1448,-1014,-649,-133,81,119,-21
536,0,2022-09-30T20:10:10.845215,1375080,1123,49,1448,-1014,-649,-133,81,119,-21
537,0,2022-09-30T20:10:10.858927,1375094,1130,40,1439,-986,-604,-110,81,119,-21
538,0,2022-09-30T20:10:10.871334,1375107,1123,40,1441,-984,-594,-69,81,119,-21
539,0,2022-09-30T20:10:10.877293,1375113,1123,40,1441,-984,-594,-69,81,119,-21
540,0,2022-09-30T20:10:10.884483,1375120,1123,40,1441,-984,-594,-69,81,119,-21
541,0,2022-09-30T20:10:10.895097,1375130,1117,47,1440,-1022,-627,-23,81,119,-21
542,0,2022-09-30T20:10:10.907546,1375142,1117,47,1440,-1022,-627,-23,81,119,-21
543,0,2022-09-30T20:10:10.917033,1375152,1113,55,1431,-1062,-654,-56,81,119,-21
544,0,2022-09-30T20:10:10.928718,1375164,1113,55,1431,-1062,-654,-56,81,119,-21
545,0,2022-09-30T20:10:10.940473,1375175,1118,53,1430,-1059,-673,-124,86,124,-24
546,0,2022-09-30T20:10:10.953063,1375187,1121,45,1439,-1026,-686,-191,86,124,-24
547,0,2022-09-30T20:10:10.964676,1375200,1121,45,1439,-1026,-686,-191,86,124,-24
548,0,2022-09-30T20:10:10.976629,1375211,1125,46,1442,-989,-666,-190,86,124,-24
549,0,2022-09-30T20:10:10.986026,1375221,1125,46,1442,-989,-666,-190,86,124,-24
550,0,2022-09-30T20:10:10.995481,1375230,1126,44,1440,-962,-650,-142,86,124,-24
551,0,2022-09-30T20:10:11.004588,1375240,1126,44,1440,-962,-650,-142,86,124,-24
552,0,2022-09-30T20:10:11.013339,1375249,1120,47,1435,-977,-637,-132,86,124,-24
553,0,2022-09-30T20:10:11.021179,1375257,1120,47,1435,-977,-637,-132,86,124,-24
554,0,2022-09-30T20:10:11.034075,1375269,1116,54,1433,-995,-608,-201,86,124,-24
555,0,2022-09-30T20:10:11.042663,1375278,1116,54,1433,-995,-608,-201,86,124,-24
556,0,2022-09-30T20:10:11.056862,1375293,1109,61,1435,-1001,-597,-250,86,124,-24
557,0,2022-09-30T20:10:11.062972,1375298,1109,61,1435,-1001,-597,-250,86,124,-24
558,0,2022-09-30T20:10:11.072110,1375307,1108,71,1459,-1043,-637,-278,88,126,-34
559,0,2022-09-30T20:10:11.086644,1375322,1108,71,1459,-1043,-637,-278,88,126,-34
560,0,2022-09-30T20:10:11.096498,1375331,1124,65,1469,-1100,-715,-263,88,126,-34
561,0,2022-09-30T20:10:11.105742,1375341,1124,65,1469,-1100,-715,-263,88,126,-34
562,0,2022-09-30T20:10:11.116446,1375351,1139,42,1461,-1094,-760,-163,88,126,-34
563,0,2022-09-30T20:10:11.128695,1375364,1139,42,1461,-1094,-760,-163,88,126,-34
564,0,2022-09-30T20:10:11.139391,1375375,1137,26,1450,-1059,-775,-33,88,126,-34
565,0,2022-09-30T20:10:11.149678,1375384,1137,26,1450,-1059,-775,-33,88,126,-34
566,0,2022-09-30T20:10:11.159490,1375395,1123,27,1441,-1102,-829,72,88,126,-34
567,0,2022-09-30T20:10:11.169360,1375405,1123,27,1441,-1102,-829,72,88,126,-34
568,0,2022-09-30T20:10:11.183572,1375419,1114,34,1430,-1193,-893,71,88,126,-34
569,0,2022-09-30T20:10:11.194459,1375430,1112,39,1428,-1239,-921,-25,89,121,-33
570,0,2022-09-30T20:10:11.206518,1375442,1112,39,1428,-1239,-921,-25,89,121,-33
571,0,2022-09-30T20:10:11.215107,1375451,1114,39,1427,-1207,-864,-100,89,121,-33
572,0,2022-09-30T20:10:11.226677,1375461,1114,39,1427,-1207,-864,-100,89,121,-33
573,0,2022-09-30T20:10:11.237541,1375473,1113,39,1423,-1141,-743,-163,89,121,-33
574,0,2022-09-30T20:10:11.246366,1375481,1113,39,1423,-1141,-743,-163,89,121,-33
575,0,2022-09-30T20:10:11.257715,1375494,1118,51,1423,-1107,-633,-276,89,121,-33
576,0,2022-09-30T20:10:11.267626,1375501,1118,51,1423,-1107,-633,-276,89,121,-33
577,0,2022-09-30T20:10:11.279087,1375514,1148,53,1425,-1118,-625,-339,89,121,-33
578,0,2022-09-30T20:10:11.291830,1375527,1146,39,1429,-1142,-709,-210,89,121,-33
579,0,2022-09-30T20:10:11.302291,1375536,1146,39,1429,-1142,-709,-210,89,121,-33
580,0,2022-09-30T20:10:11.311385,1375547,1128,36,1424,-1115,-774,-8,89,121,-33
581,0,2022-09-30T20:10:11.317501,1375553,1128,36,1424,-1115,-774,-8,89,121,-33
582,0,2022-09-30T20:10:11.325989,1375559,1128,36,1424,-1115,-774,-8,89,121,-33
583,0,2022-09-30T20:10:11.338740,1375575,1131,43,1418,-1054,-735,-5,87,125,-31
584,0,2022-09-30T20:10:11.347346,1375582,1131,43,1418,-1054,-735,-5,87,125,-31
585,0,2022-09-30T20:10:11.357526,1375593,1139,45,1418,-1056,-682,-227,87,125,-31
586,0,2022-09-30T20:10:11.368215,1375603,1139,45,1418,-1056,-682,-227,87,125,-31
587,0,2022-09-30T20:10:11.376846,1375609,1151,39,1434,-1077,-635,-403,87,125,-31
588,0,2022-09-30T20:10:11.385712,1375621,1151,39,1434,-1077,-635,-403,87,125,-31
589,0,2022-09-30T20:10:11.393796,1375630,1151,39,1434,-1077,-635,-403,87,125,-31
590,0,2022-09-30T20:10:11.401215,1375636,1151,39,1434,-1077,-635,-403,87,125,-31
591,0,2022-09-30T20:10:11.411177,1375646,1146,32,1418,-1131,-647,-138,87,125,-31
592,0,2022-09-30T20:10:11.422343,1375657,1146,32,1418,-1131,-647,-138,87,125,-31
593,0,2022-09-30T20:10:11.432716,1375668,1141,33,1407,-1105,-658,-61,87,125,-31
594,0,2022-09-30T20:10:11.449978,1375683,1141,33,1407,-1105,-658,-61,87,125,-31
595,0,2022-09-30T20:10:11.459514,1375695,1126,29,1404,-1148,-681,-111,89,117,-31
596,0,2022-09-30T20:10:11.469394,1375705,1126,29,1404,-1148,-681,-111,89,117,-31
597,0,2022-09-30T20:10:11.481457,1375717,1130,27,1408,-1166,-644,-194,89,117,-31
598,0,2022-09-30T20:10:11.491382,1375727,1135,26,1420,-1083,-571,-230,89,117,-31
599,0,2022-09-30T20:10:11.500085,1375735,1135,26,1420,-1083,-571,-230,89,117,-31
600,0,2022-09-30T20:10:11.508178,1375744,1135,26,1420,-1083,-571,-230,89,117,-31
601,0,2022-09-30T20:10:11.514404,1375750,1146,25,1422,-1003,-558,-196,89,117,-31
602,0,2022-09-30T20:10:11.523720,1375758,1146,25,1422,-1003,-558,-196,89,117,-31
603,0,2022-09-30T20:10:11.537458,1375773,1143,23,1423,-985,-576,-87,89,117,-31
604,0,2022-09-30T20:10:11.551116,1375783,1143,23,1423,-985,-576,-87,89,117,-31
605,0,2022-09-30T20:10:11.561592,1375797,1131,33,1419,-994,-584,-37,89,117,-31
606,0,2022-09-30T20:10:11.571660,1375807,1119,42,1396,-989,-598,-147,85,111,-27
607,0,2022-09-30T20:10:11.579762,1375816,1119,42,1396,-989,-598,-147,85,111,-27
608,0,2022-09-30T20:10:11.587419,1375823,1119,42,1396,-989,-598,-147,85,111,-27
609,0,2022-09-30T20:10:11.593918,1375830,1115,38,1411,-982,-555,-310,85,111,-27
610,0,2022-09-30T20:10:11.604671,1375841,1115,38,1411,-982,-555,-310,85,111,-27
611,0,2022-09-30T20:10:11.613859,1375849,1128,40,1427,-981,-498,-405,85,111,-27
612,0,2022-09-30T20:10:11.624772,1375859,1128,40,1427,-981,-498,-405,85,111,-27
613,0,2022-09-30T20:10:11.637417,1375874,1139,28,1445,-973,-474,-363,85,111,-27
614,0,2022-09-30T20:10:11.645679,1375881,1139,28,1445,-973,-474,-363,85,111,-27
615,0,2022-09-30T20:10:11.660752,1375896,1144,18,1437,-942,-465,-258,85,111,-27
616,0,2022-09-30T20:10:11.674340,1375908,1137,21,1432,-929,-444,-189,85,111,-27
617,0,2022-09-30T20:10:11.686169,1375922,1137,21,1432,-929,-444,-189,85,111,-27
618,0,2022-09-30T20:10:11.694356,1375930,1127,28,1425,-991,-462,-189,85,111,-27
619,0,2022-09-30T20:10:11.707603,1375940,1127,28,1425,-991,-462,-189,85,111,-27
620,0,2022-09-30T20:10:11.714983,1375950,1124,37,1431,-1051,-501,-235,85,119,-27
621,0,2022-09-30T20:10:11.724466,1375959,1124,37,1431,-1051,-501,-235,85,119,-27
622,0,2022-09-30T20:10:11.736424,1375972,1133,33,1433,-1056,-476,-252,85,119,-27
623,0,2022-09-30T20:10:11.746573,1375982,1133,33,1433,-1056,-476,-252,85,119,-27
624,0,2022-09-30T20:10:11.758956,1375994,1141,27,1444,-1016,-455,-206,85,119,-27
625,0,2022-09-30T20:10:11.768689,1376005,1141,27,1444,-1016,-455,-206,85,119,-27
626,0,2022-09-30T20:10:11.776772,1376011,1133,18,1441,-1010,-455,-173,85,119,-27
627,0,2022-09-30T20:10:11.786298,1376022,1133,18,1441,-1010,-455,-173,85,119,-27
628,0,2022-09-30T20:10:11.793001,1376028,1129,15,1448,-1070,-486,-189,85,119,-27
629,0,2022-09-30T20:10:11.805999,1376040,1129,15,1448,-1070,-486,-189,85,119,-27
630,0,2022-09-30T20:10:11.812597,1376048,1128,25,1437,-1152,-546,-194,85,119,-27
631,0,2022-09-30T20:10:11.827419,1376063,1128,25,1437,-1152,-546,-194,85,119,-27
632,0,2022-09-30T20:10:11.836548,1376072,1128,29,1442,-1190,-586,-217,87,115,-25
633,0,2022-09-30T20:10:11.844197,1376079,1128,29,1442,-1190,-586,-217,87,115,-25
634,0,2022-09-30T20:10:11.857169,1376092,1127,25,1449,-1182,-603,-222,87,115,-25
635,0,2022-09-30T20:10:11.868405,1376104,1127,25,1449,-1182,-603,-222,87,115,-25
636,0,2022-09-30T20:10:11.885064,1376120,1128,18,1434,-1159,-617,-209,87,115,-25
637,0,2022-09-30T20:10:11.895304,1376131,1123,22,1420,-1142,-625,-224,87,115,-25
638,0,2022-09-30T20:10:11.908453,1376144,1123,22,1420,-1142,-625,-224,87,115,-25
639,0,2022-09-30T20:10:11.914454,1376150,1122,21,1425,-1160,-607,-287,87,115,-25
640,0,2022-09-30T20:10:11.920160,1376156,1122,21,1425,-1160,-607,-287,87,115,-25
641,0,2022-09-30T20:10:11.931485,1376167,1125,24,1422,-1163,-614,-357,87,115,-25
642,0,2022-09-30T20:10:11.941381,1376178,1125,24,1422,-1163,-614,-357,87,115,-25
643,0,2022-09-30T20:10:11.949193,1376184,1125,24,1422,-1163,-614,-357,87,115,-25
644,0,2022-09-30T20:10:11.965051,1376200,1124,24,1418,-1135,-615,-389,87,115,-25
645,0,2022-09-30T20:10:11.976603,1376211,1127,25,1429,-1108,-596,-383,90,114,-28
646,0,2022-09-30T20:10:11.989041,1376225,1127,25,1429,-1108,-596,-383,90,114,-28
647,0,2022-09-30T20:10:11.995978,1376232,1123,27,1424,-1079,-574,-339,90,114,-28
648,0,2022-09-30T20:10:12.010899,1376246,1123,27,1424,-1079,-574,-339,90,114,-28
649,0,2022-09-30T20:10:12.016456,1376252,1122,26,1417,-1075,-531,-376,90,114,-28
650,0,2022-09-30T20:10:12.023405,1376259,1122,26,1417,-1075,-531,-376,90,114,-28
651,0,2022-09-30T20:10:12.034432,1376269,1127,25,1414,-1108,-528,-508,90,114,-28
652,0,2022-09-30T20:10:12.041825,1376277,1127,25,1414,-1108,-528,-508,90,114,-28
653,0,2022-09-30T20:10:12.049342,1376284,1127,25,1414,-1108,-528,-508,90,114,-28
654,0,2022-09-30T20:10:12.056690,1376291,1149,18,1431,-1122,-546,-553,90,114,-28
655,0,2022-09-30T20:10:12.064080,1376300,1149,18,1431,-1122,-546,-553,90,114,-28
656,0,2022-09-30T20:10:12.071606,1376307,1138,6,1432,-1143,-612,-407,90,114,-28
657,0,2022-09-30T20:10:12.082809,1376317,1138,6,1432,-1143,-612,-407,90,114,-28
658,0,2022-09-30T20:10:12.092205,1376328,1128,1,1434,-1111,-602,-315,84,118,-24
659,0,2022-09-30T20:10:12.103450,1376335,1128,1,1434,-1111,-602,-315,84,118,-24
660,0,2022-09-30T20:10:12.112809,1376349,1133,12,1426,-1073,-576,-452,84,118,-24
661,0,2022-09-30T20:10:12.124380,1376359,1133,12,1426,-1073,-576,-452,84,118,-24
662,0,2022-09-30T20:10:12.136019,1376372,1127,23,1422,-1095,-532,-684,84,118,-24
663,0,2022-09-30T20:10:12.145438,1376380,1127,23,1422,-1095,-532,-684,84,118,-24
664,0,2022-09-30T20:10:12.155214,1376391,1133,19,1427,-1144,-497,-775,84,118,-24
665,0,2022-09-30T20:10:12.163526,1376399,1133,19,1427,-1144,-497,-775,84,118,-24
666,0,2022-09-30T20:10:12.169092,1376405,1133,19,1427,-1144,-497,-775,84,118,-24
667,0,2022-09-30T20:10:12.179818,1376415,1135,11,1438,-1161,-458,-675,84,118,-24
668,0,2022-09-30T20:10:12.189182,1376424,1135,11,1438,-1161,-458,-675,84,118,-24
669,0,2022-09-30T20:10:12.195654,1376432,1133,3,1430,-1140,-444,-526,84,118,-24
670,0,2022-09-30T20:10:12.203155,1376439,1133,3,1430,-1140,-444,-526,84,118,-24
671,0,2022-09-30T20:10:12.209110,1376445,1133,3,1430,-1140,-444,-526,84,118,-24
672,0,2022-09-30T20:10:12.214572,1376451,1134,-1,1424,-1143,-450,-461,84,118,-24
673,0,2022-09-30T20:10:12.221827,1376457,1134,-1,1424,-1143,-450,-461,84,118,-24
674,0,2022-09-30T20:10:12.229471,1376465,1134,-1,1424,-1143,-450,-461,84,118,-24
675,0,2022-09-30T20:10:12.235771,1376471,1129,10,1423,-1205,-481,-507,92,120,-30
676,0,2022-09-30T20:10:12.242673,1376479,1129,10,1423,-1205,-481,-507,92,120,-30
677,0,2022-09-30T20:10:12.249317,1376484,1129,10,1423,-1205,-481,-507,92,120,-30
678,0,2022-09-30T20:10:12.256480,1376493,1129,22,1422,-1257,-493,-564,92,120,-30
679,0,2022-09-30T20:10:12.263427,1376499,1129,22,1422,-1257,-493,-564,92,120,-30
680,0,2022-09-30T20:10:12.268665,1376504,1129,22,1422,-1257,-493,-564,92,120,-30
681,0,2022-09-30T20:10:12.278150,1376514,1131,23,1433,-1197,-477,-585,92,120,-30
682,0,2022-09-30T20:10:12.285217,1376521,1131,23,1433,-1197,-477,-585,92,120,-30
683,0,2022-09-30T20:10:12.292219,1376528,1134,21,1428,-1101,-499,-540,92,120,-30
684,0,2022-09-30T20:10:12.299952,1376535,1134,21,1428,-1101,-499,-540,92,120,-30
685,0,2022-09-30T20:10:12.306173,1376542,1134,21,1428,-1101,-499,-540,92,120,-30
686,0,2022-09-30T20:10:12.312705,1376548,1130,15,1430,-1028,-527,-465,92,120,-30
687,0,2022-09-30T20:10:12.319811,1376556,1130,15,1430,-1028,-527,-465,92,120,-30
688,0,2022-09-30T20:10:12.330844,1376567,1130,15,1430,-1028,-527,-465,92,120,-30
689,0,2022-09-30T20:10:12.338152,1376574,1125,18,1420,-1017,-553,-431,92,120,-30
690,0,2022-09-30T20:10:12.344964,1376581,1125,18,1420,-1017,-553,-431,92,120,-30
691,0,2022-09-30T20:10:12.353666,1376589,1126,23,1416,-1045,-562,-532,85,119,-21
692,0,2022-09-30T20:10:12.359586,1376595,1126,23,1416,-1045,-562,-532,85,119,-21
693,0,2022-09-30T20:10:12.366789,1376603,1126,23,1416,-1045,-562,-532,85,119,-21
694,0,2022-09-30T20:10:12.373619,1376609,1122,20,1428,-1055,-507,-639,85,119,-21
695,0,2022-09-30T20:10:12.380928,1376617,1122,20,1428,-1055,-507,-639,85,119,-21
696,0,2022-09-30T20:10:12.387905,1376624,1122,20,1428,-1055,-507,-639,85,119,-21
697,0,2022-09-30T20:10:12.393873,1376629,1120,21,1436,-1047,-448,-634,85,119,-21
698,0,2022-09-30T20:10:12.402292,1376638,1120,21,1436,-1047,-448,-634,85,119,-21
699,0,2022-09-30T20:10:12.409515,1376646,1120,21,1436,-1047,-448,-634,85,119,-21
700,0,2022-09-30T20:10:12.415303,1376651,1130,19,1447,-987,-413,-562,85,119,-21
701,0,2022-09-30T20:10:12.423114,1376658,1130,19,1447,-987,-413,-562,85,119,-21
702,0,2022-09-30T20:10:12.430619,1376666,1130,19,1447,-987,-413,-562,85,119,-21
703,0,2022-09-30T20:10:12.436346,1376672,1132,14,1437,-934,-463,-469,85,119,-21
704,0,2022-09-30T20:10:12.443628,1376679,1132,14,1437,-934,-463,-469,85,119,-21
705,0,2022-09-30T20:10:12.451832,1376686,1132,14,1437,-934,-463,-469,85,119,-21
706,0,2022-09-30T20:10:12.457658,1376694,1134,12,1433,-933,-500,-422,85,119,-21
707,0,2022-09-30T20:10:12.464569,1376701,1134,12,1433,-933,-500,-422,85,119,-21
708,0,2022-09-30T20:10:12.471557,1376707,1134,12,1433,-933,-500,-422,85,119,-21
709,0,2022-09-30T20:10:12.477797,1376713,1130,23,1431,-998,-534,-405,88,114,-24
710,0,2022-09-30T20:10:12.484558,1376720,1130,23,1431,-998,-534,-405,88,114,-24
711,0,2022-09-30T20:10:12.491862,1376728,1122,28,1435,-1035,-546,-401,88,114,-24
712,0,2022-09-30T20:10:12.499591,1376735,1122,28,1435,-1035,-546,-401,88,114,-24
713,0,2022-09-30T20:10:12.505326,1376741,1122,28,1435,-1035,-546,-401,88,114,-24
714,0,2022-09-30T20:10:12.512381,1376748,1126,21,1438,-1028,-547,-444,88,114,-24
715,0,2022-09-30T20:10:12.519367,1376755,1126,21,1438,-1028,-547,-444,88,114,-24
716,0,2022-09-30T20:10:12.526459,1376762,1126,21,1438,-1028,-547,-444,88,114,-24
717,0,2022-09-30T20:10:12.531757,1376768,1133,20,1438,-997,-538,-474,88,114,-24
718,0,2022-09-30T20:10:12.539272,1376775,1133,20,1438,-997,-538,-474,88,114,-24
719,0,2022-09-30T20:10:12.544767,1376781,1133,20,1438,-997,-538,-474,88,114,-24
720,0,2022-09-30T20:10:12.551695,1376787,1133,20,1438,-997,-538,-474,88,114,-24
721,0,2022-09-30T20:10:12.557531,1376793,1133,23,1438,-969,-547,-423,88,114,-24
722,0,2022-09-30T20:10:12.564443,1376800,1133,23,1438,-969,-547,-423,88,114,-24
723,0,2022-09-30T20:10:12.571443,1376807,1133,23,1438,-969,-547,-423,88,114,-24
724,0,2022-09-30T20:10:12.578718,1376815,1124,24,1431,-957,-560,-380,88,114,-24
725,0,2022-09-30T20:10:12.585603,1376822,1124,24,1431,-957,-560,-380,88,114,-24
726,0,2022-09-30T20:10:12.593321,1376829,1122,19,1434,-1017,-572,-415,88,114,-24
727,0,2022-09-30T20:10:12.601012,1376837,1122,19,1434,-1017,-572,-415,88,114,-24
728,0,2022-09-30T20:10:12.608210,1376844,1122,19,1434,-1017,-572,-415,88,114,-24
729,0,2022-09-30T20:10:12.614062,1376850,1124,17,1436,-1073,-563,-481,87,129,-25
730,0,2022-09-30T20:10:12.621238,1376857,1124,17,1436,-1073,-563,-481,87,129,-25
731,0,2022-09-30T20:10:12.630262,1376866,1124,17,1436,-1073,-563,-481,87,129,-25
732,0,2022-09-30T20:10:12.635702,1376872,1125,23,1431,-1051,-542,-467,87,129,-25
733,0,2022-09-30T20:10:12.642538,1376879,1125,23,1431,-1051,-542,-467,87,129,-25
734,0,2022-09-30T20:10:12.649884,1376885,1125,23,1431,-1051,-542,-467,87,129,-25
735,0,2022-09-30T20:10:12.656103,1376891,1127,20,1437,-1032,-563,-389,87,129,-25
736,0,2022-09-30T20:10:12.662264,1376898,1127,20,1437,-1032,-563,-389,87,129,-25
737,0,2022-09-30T20:10:12.669131,1376905,1127,20,1437,-1032,-563,-389,87,129,-25
738,0,2022-09-30T20:10:12.675170,1376911,1134,22,1443,-1043,-589,-365,87,129,-25
739,0,2022-09-30T20:10:12.682467,1376918,1134,22,1443,-1043,-589,-365,87,129,-25
740,0,2022-09-30T20:10:12.690319,1376926,1134,22,1443,-1043,-589,-365,87,129,-25
741,0,2022-09-30T20:10:12.696691,1376931,1145,16,1443,-1049,-591,-374,87,129,-25
742,0,2022-09-30T20:10:12.705538,1376942,1145,16,1443,-1049,-591,-374,87,129,-25
743,0,2022-09-30T20:10:12.712495,1376949,1148,10,1441,-1024,-629,-347,87,129,-25
744,0,2022-09-30T20:10:12.719822,1376956,1148,10,1441,-1024,-629,-347,87,129,-25
745,0,2022-09-30T20:10:12.727389,1376963,1148,10,1441,-1024,-629,-347,87,129,-25
746,0,2022-09-30T20:10:12.733029,1376969,1150,-4,1451,-1018,-707,-285,93,121,-25
747,0,2022-09-30T20:10:12.740334,1376976,1150,-4,1451,-1018,-707,-285,93,121,-25
748,0,2022-09-30T20:10:12.747633,1376984,1150,-4,1451,-1018,-707,-285,93,121,-25
749,0,2022-09-30T20:10:12.754968,1376991,1154,-10,1457,-1012,-815,-159,93,121,-25
750,0,2022-09-30T20:10:12.762193,1376998,1154,-10,1457,-1012,-815,-159,93,121,-25
751,0,2022-09-30T20:10:12.768861,1377005,1154,-10,1457,-1012,-815,-159,93,121,-25
752,0,2022-09-30T20:10:12.774374,1377010,1119,2,1452,-997,-919,25,93,121,-25
753,0,2022-09-30T20:10:12.780911,1377017,1119,2,1452,-997,-919,25,93,121,-25
754,0,2022-09-30T20:10:12.787578,1377024,1119,2,1452,-997,-919,25,93,121,-25
755,0,2022-09-30T20:10:12.792938,1377030,1105,18,1445,-1010,-912,33,93,121,-25
756,0,2022-09-30T20:10:12.799739,1377036,1105,18,1445,-1010,-912,33,93,121,-25
757,0,2022-09-30T20:10:12.806360,1377043,1105,18,1445,-1010,-912,33,93,121,-25
758,0,2022-09-30T20:10:12.811557,1377048,1116,21,1428,-1078,-810,-135,93,121,-25
759,0,2022-09-30T20:10:12.817910,1377054,1116,21,1428,-1078,-810,-135,93,121,-25
760,0,2022-09-30T20:10:12.823629,1377059,1116,21,1428,-1078,-810,-135,93,121,-25
761,0,2022-09-30T20:10:12.830739,1377067,1116,21,1428,-1078,-810,-135,93,121,-25
762,0,2022-09-30T20:10:12.836432,1377073,1133,30,1420,-1158,-742,-269,93,121,-25
763,0,2022-09-30T20:10:12.843695,1377080,1133,30,1420,-1158,-742,-269,93,121,-25
764,0,2022-09-30T20:10:12.850611,1377085,1133,30,1420,-1158,-742,-269,93,121,-25
765,0,2022-09-30T20:10:12.855992,1377092,1145,18,1419,-1193,-677,-157,93,121,-25
766,0,2022-09-30T20:10:12.863416,1377099,1145,18,1419,-1193,-677,-157,93,121,-25
767,0,2022-09-30T20:10:12.871152,1377107,1145,18,1419,-1193,-677,-157,93,121,-25
768,0,2022-09-30T20:10:12.877898,1377114,1140,14,1426,-1122,-662,120,86,122,-28
769,0,2022-09-30T20:10:12.883613,1377120,1140,14,1426,-1122,-662,120,86,122,-28
770,0,2022-09-30T20:10:12.891148,1377127,1140,14,1426,-1122,-662,120,86,122,-28
771,0,2022-09-30T20:10:12.897601,1377133,1134,24,1413,-1119,-756,165,86,122,-28
772,0,2022-09-30T20:10:12.907660,1377143,1134,24,1413,-1119,-756,165,86,122,-28
773,0,2022-09-30T20:10:12.915358,1377152,1133,31,1419,-1158,-838,11,86,122,-28
774,0,2022-09-30T20:10:12.923013,1377159,1133,31,1419,-1158,-838,11,86,122,-28
775,0,2022-09-30T20:10:12.931825,1377168,1133,31,1419,-1158,-838,11,86,122,-28
776,0,2022-09-30T20:10:12.940412,1377176,1135,24,1426,-1169,-831,-78,86,122,-28
777,0,2022-09-30T20:10:12.949060,1377185,1135,24,1426,-1169,-831,-78,86,122,-28
778,0,2022-09-30T20:10:12.956881,1377192,1142,12,1441,-1134,-783,-6,86,122,-28
779,0,2022-09-30T20:10:12.964048,1377200,1142,12,1441,-1134,-783,-6,86,122,-28
780,0,2022-09-30T20:10:12.969641,1377206,1142,12,1441,-1134,-783,-6,86,122,-28
781,0,2022-09-30T20:10:12.975516,1377211,1151,6,1438,-1063,-762,149,86,122,-28
782,0,2022-09-30T20:10:12.982561,1377219,1151,6,1438,-1063,-762,149,86,122,-28
783,0,2022-09-30T20:10:12.992391,1377228,1151,6,1438,-1063,-762,149,86,122,-28
784,0,2022-09-30T20:10:13.002727,1377236,1140,11,1421,-1006,-789,188,88,126,-26
785,0,2022-09-30T20:10:13.013600,1377249,1125,11,1406,-1038,-819,130,88,126,-26
786,0,2022-09-30T20:10:13.022337,1377258,1125,11,1406,-1038,-819,130,88,126,-26
787,0,2022-09-30T20:10:13.028007,1377264,1125,11,1406,-1038,-819,130,88,126,-26
788,0,2022-09-30T20:10:13.034179,1377270,1119,11,1405,-1133,-855,13,88,126,-26
789,0,2022-09-30T20:10:13.041500,1377277,1119,11,1405,-1133,-855,13,88,126,-26
790,0,2022-09-30T20:10:13.049574,1377286,1119,11,1405,-1133,-855,13,88,126,-26
791,0,2022-09-30T20:10:13.056727,1377293,1136,12,1405,-1149,-808,-46,88,126,-26
792,0,2022-09-30T20:10:13.061998,1377298,1136,12,1405,-1149,-808,-46,88,126,-26
793,0,2022-09-30T20:10:13.067146,1377303,1136,12,1405,-1149,-808,-46,88,126,-26
794,0,2022-09-30T20:10:13.074333,1377309,1159,6,1422,-1101,-683,49,88,126,-26
795,0,2022-09-30T20:10:13.086276,1377323,1159,6,1422,-1101,-683,49,88,126,-26
796,0,2022-09-30T20:10:13.093592,1377330,1167,-6,1438,-988,-632,144,88,126,-26
797,0,2022-09-30T20:10:13.104721,1377341,1167,-6,1438,-988,-632,144,88,126,-26
798,0,2022-09-30T20:10:13.109966,1377346,1167,-6,1438,-988,-632,144,88,126,-26
799,0,2022-09-30T20:10:13.115773,1377351,1157,-5,1426,-951,-680,175,88,126,-26
800,0,2022-09-30T20:10:13.122811,1377358,1157,-5,1426,-951,-680,175,88,126,-26
801,0,2022-09-30T20:10:13.133146,1377370,1138,1,1409,-933,-836,164,95,117,-21
802,0,2022-09-30T20:10:13.142572,1377379,1138,1,1409,-933,-836,164,95,117,-21
803,0,2022-09-30T20:10:13.149681,1377384,1138,1,1409,-933,-836,164,95,117,-21
804,0,2022-09-30T20:10:13.156535,1377392,1123,-2,1403,-966,-840,24,95,117,-21
805,0,2022-09-30T20:10:13.165854,1377401,1123,-2,1403,-966,-840,24,95,117,-21
806,0,2022-09-30T20:10:13.172374,1377408,1123,-2,1403,-966,-840,24,95,117,-21
807,0,2022-09-30T20:10:13.179245,1377415,1140,7,1412,-1036,-744,-138,95,117,-21
808,0,2022-09-30T20:10:13.187734,1377424,1140,7,1412,-1036,-744,-138,95,117,-21
809,0,2022-09-30T20:10:13.195683,1377431,1151,1,1423,-1063,-658,-114,95,117,-21
810,0,2022-09-30T20:10:13.212344,1377448,1151,1,1423,-1063,-658,-114,95,117,-21
811,0,2022-09-30T20:10:13.222918,1377458,1159,-2,1423,-962,-625,-26,95,117,-21
812,0,2022-09-30T20:10:13.236108,1377472,1159,-4,1420,-891,-632,16,95,117,-21
813,0,2022-09-30T20:10:13.244021,1377480,1159,-4,1420,-891,-632,16,95,117,-21
814,0,2022-09-30T20:10:13.250441,1377486,1159,-4,1420,-891,-632,16,95,117,-21
815,0,2022-09-30T20:10:13.257256,1377494,1142,-3,1416,-951,-694,71,95,111,-21
816,0,2022-09-30T20:10:13.266069,1377502,1142,-3,1416,-951,-694,71,95,111,-21
817,0,2022-09-30T20:10:13.273008,1377508,1142,-3,1416,-951,-694,71,95,111,-21
818,0,2022-09-30T20:10:13.283458,1377519,1126,-1,1406,-1005,-695,62,95,111,-21
819,0,2022-09-30T20:10:13.293023,1377528,1120,-3,1400,-1016,-638,52,95,111,-21
820,0,2022-09-30T20:10:13.302108,1377537,1120,-3,1400,-1016,-638,52,95,111,-21
821,0,2022-09-30T20:10:13.311854,1377548,1120,-3,1400,-1016,-638,52,95,111,-21
822,0,2022-09-30T20:10:13.318020,1377554,1120,-3,1400,-1016,-638,52,95,111,-21
823,0,2022-09-30T20:10:13.326314,1377560,1120,-3,1400,-1016,-638,52,95,111,-21
824,0,2022-09-30T20:10:13.337348,1377573,1147,-5,1426,-998,-461,-81,95,111,-21
825,0,2022-09-30T20:10:13.345131,1377581,1147,-5,1426,-998,-461,-81,95,111,-21
826,0,2022-09-30T20:10:13.357050,1377593,1152,-13,1426,-1016,-485,-110,95,111,-21
827,0,2022-09-30T20:10:13.369530,1377605,1152,-13,1426,-1016,-485,-110,95,111,-21
828,0,2022-09-30T20:10:13.379810,1377614,1145,-12,1423,-1002,-525,-84,92,120,-28
829,0,2022-09-30T20:10:13.387555,1377624,1145,-12,1423,-1002,-525,-84,92,120,-28
830,0,2022-09-30T20:10:13.393522,1377630,1140,-8,1422,-1004,-567,-60,92,120,-28
831,0,2022-09-30T20:10:13.408285,1377644,1140,-8,1422,-1004,-567,-60,92,120,-28
832,0,2022-09-30T20:10:13.417521,1377653,1146,-8,1425,-1020,-598,-62,92,120,-28
833,0,2022-09-30T20:10:13.427641,1377664,1146,-8,1425,-1020,-598,-62,92,120,-28
834,0,2022-09-30T20:10:13.436624,1377673,1152,-14,1421,-1027,-581,-55,92,120,-28
835,0,2022-09-30T20:10:13.444055,1377680,1152,-14,1421,-1027,-581,-55,92,120,-28
836,0,2022-09-30T20:10:13.452172,1377688,1152,-14,1421,-1027,-581,-55,92,120,-28
837,0,2022-09-30T20:10:13.457948,1377694,1151,-13,1415,-1006,-586,-36,92,120,-28
838,0,2022-09-30T20:10:13.465890,1377701,1151,-13,1415,-1006,-586,-36,92,120,-28
839,0,2022-09-30T20:10:13.475529,1377710,1144,-13,1415,-997,-576,-48,92,120,-28
840,0,2022-09-30T20:10:13.486142,1377722,1144,-13,1415,-997,-576,-48,92,120,-28
841,0,2022-09-30T20:10:13.492024,1377728,1144,-13,1415,-997,-576,-48,92,120,-28
842,0,2022-09-30T20:10:13.498441,1377734,1135,-12,1412,-1042,-595,-94,92,120,-28
843,0,2022-09-30T20:10:13.509868,1377746,1135,-12,1412,-1042,-595,-94,92,120,-28
844,0,2022-09-30T20:10:13.519986,1377756,1138,-16,1415,-1062,-593,-145,90,112,-36
845,0,2022-09-30T20:10:13.535033,1377771,1143,-14,1413,-1047,-551,-157,90,112,-36
846,0,2022-09-30T20:10:13.543097,1377779,1143,-14,1413,-1047,-551,-157,90,112,-36
847,0,2022-09-30T20:10:13.552911,1377785,1143,-14,1413,-1047,-551,-157,90,112,-36
848,0,2022-09-30T20:10:13.561583,1377798,1138,-14,1412,-1019,-526,-146,90,112,-36
849,0,2022-09-30T20:10:13.570384,1377806,1138,-14,1412,-1019,-526,-146,90,112,-36
850,0,2022-09-30T20:10:13.577713,1377813,1118,-4,1410,-1044,-529,-248,90,112,-36
851,0,2022-09-30T20:10:13.587896,1377823,1118,-4,1410,-1044,-529,-248,90,112,-36
852,0,2022-09-30T20:10:13.595593,1377831,1151,-15,1408,-1056,-520,-389,90,112,-36
853,0,2022-09-30T20:10:13.607083,1377842,1151,-15,1408,-1056,-520,-389,90,112,-36
854,0,2022-09-30T20:10:13.617493,1377854,1145,-21,1411,-1032,-549,-292,90,112,-36
855,0,2022-09-30T20:10:13.626480,1377861,1145,-21,1411,-1032,-549,-292,90,112,-36
856,0,2022-09-30T20:10:13.635593,1377871,1133,-15,1414,-939,-541,-187,88,120,-26
857,0,2022-09-30T20:10:13.647207,1377882,1133,-15,1414,-939,-541,-187,88,120,-26
858,0,2022-09-30T20:10:13.655160,1377891,1131,-10,1406,-893,-495,-278,88,120,-26
859,0,2022-09-30T20:10:13.664457,1377900,1131,-10,1406,-893,-495,-278,88,120,-26
860,0,2022-09-30T20:10:13.678274,1377910,1136,-5,1408,-982,-446,-463,88,120,-26
861,0,2022-09-30T20:10:13.690481,1377927,1136,-5,1408,-982,-446,-463,88,120,-26
862,0,2022-09-30T20:10:13.700978,1377934,1155,-13,1421,-1076,-410,-591,88,120,-26
863,0,2022-09-30T20:10:13.710757,1377947,1155,-13,1421,-1076,-410,-591,88,120,-26
864,0,2022-09-30T20:10:13.716139,1377952,1171,-23,1437,-1025,-420,-548,88,120,-26
865,0,2022-09-30T20:10:13.724843,1377959,1171,-23,1437,-1025,-420,-548,88,120,-26
866,0,2022-09-30T20:10:13.733724,1377970,1155,-25,1413,-977,-522,-389,88,120,-26
867,0,2022-09-30T20:10:13.742731,1377979,1155,-25,1413,-977,-522,-389,88,120,-26
868,0,2022-09-30T20:10:13.750457,1377986,1155,-25,1413,-977,-522,-389,88,120,-26
869,0,2022-09-30T20:10:13.756998,1377993,1133,-20,1404,-1032,-556,-365,88,120,-26
870,0,2022-09-30T20:10:13.765751,1378001,1133,-20,1404,-1032,-556,-365,88,120,-26
871,0,2022-09-30T20:10:13.772390,1378008,1133,-20,1404,-1032,-556,-365,88,120,-26
872,0,2022-09-30T20:10:13.780416,1378016,1140,-21,1407,-1153,-568,-498,87,113,-27
873,0,2022-09-30T20:10:13.788950,1378025,1140,-21,1407,-1153,-568,-498,87,113,-27
874,0,2022-09-30T20:10:13.796960,1378032,1136,-24,1413,-1178,-534,-584,87,113,-27
875,0,2022-09-30T20:10:13.810832,1378046,1136,-24,1413,-1178,-534,-584,87,113,-27
876,0,2022-09-30T20:10:13.819098,1378056,1144,-28,1419,-1113,-455,-587,87,113,-27
877,0,2022-09-30T20:10:13.826567,1378062,1144,-28,1419,-1113,-455,-587,87,113,-27
878,0,2022-09-30T20:10:13.834963,1378071,1151,-33,1426,-1099,-418,-554,87,113,-27
879,0,2022-09-30T20:10:13.840578,1378076,1151,-33,1426,-1099,-418,-554,87,113,-27
880,0,2022-09-30T20:10:13.848159,1378084,1151,-33,1426,-1099,-418,-554,87,113,-27
881,0,2022-09-30T20:10:13.855559,1378092,1143,-44,1423,-1141,-418,-551,87,113,-27
882,0,2022-09-30T20:10:13.862846,1378099,1143,-44,1423,-1141,-418,-551,87,113,-27
883,0,2022-09-30T20:10:13.868700,1378105,1143,-44,1423,-1141,-418,-551,87,113,-27
884,0,2022-09-30T20:10:13.874686,1378110,1136,-36,1406,-1232,-455,-629,87,113,-27
885,0,2022-09-30T20:10:13.882351,1378118,1136,-36,1406,-1232,-455,-629,87,113,-27
886,0,2022-09-30T20:10:13.889033,1378125,1136,-36,1406,-1232,-455,-629,87,113,-27
887,0,2022-09-30T20:10:13.894723,1378130,1126,-20,1399,-1267,-484,-753,88,116,-30
888,0,2022-09-30T20:10:13.903002,1378139,1126,-20,1399,-1267,-484,-753,88,116,-30
889,0,2022-09-30T20:10:13.910839,1378147,1126,-20,1399,-1267,-484,-753,88,116,-30
890,0,2022-09-30T20:10:13.916891,1378153,1126,-16,1410,-1272,-398,-933,88,116,-30
891,0,2022-09-30T20:10:13.924400,1378160,1126,-16,1410,-1272,-398,-933,88,116,-30
892,0,2022-09-30T20:10:13.931872,1378168,1126,-16,1410,-1272,-398,-933,88,116,-30
893,0,2022-09-30T20:10:13.937824,1378173,1135,-16,1417,-1298,-323,-1097,88,116,-30
894,0,2022-09-30T20:10:13.943390,1378180,1135,-16,1417,-1298,-323,-1097,88,116,-30
895,0,2022-09-30T20:10:13.950601,1378187,1135,-16,1417,-1298,-323,-1097,88,116,-30
896,0,2022-09-30T20:10:13.956864,1378193,1146,-29,1434,-1287,-293,-1110,88,116,-30
897,0,2022-09-30T20:10:13.963645,1378200,1146,-29,1434,-1287,-293,-1110,88,116,-30
898,0,2022-09-30T20:10:13.970610,1378207,1146,-29,1434,-1287,-293,-1110,88,116,-30
899,0,2022-09-30T20:10:13.976599,1378212,1142,-30,1432,-1258,-323,-1055,88,116,-30
900,0,2022-09-30T20:10:13.983559,1378220,1142,-30,1432,-1258,-323,-1055,88,116,-30
901,0,2022-09-30T20:10:13.989384,1378225,1142,-30,1432,-1258,-323,-1055,88,116,-30
902,0,2022-09-30T20:10:13.995311,1378232,1135,-27,1428,-1280,-347,-1071,88,116,-30
903,0,2022-09-30T20:10:14.003490,1378239,1135,-27,1428,-1280,-347,-1071,88,116,-30
904,0,2022-09-30T20:10:14.010467,1378247,1135,-27,1428,-1280,-347,-1071,88,116,-30
905,0,2022-09-30T20:10:14.016210,1378252,1128,-25,1418,-1369,-337,-1186,96,120,-26
906,0,2022-09-30T20:10:14.023349,1378259,1128,-25,1418,-1369,-337,-1186,96,120,-26
907,0,2022-09-30T20:10:14.030820,1378267,1128,-25,1418,-1369,-337,-1186,96,120,-26
908,0,2022-09-30T20:10:14.036433,1378273,1124,-22,1422,-1469,-323,-1317,96,120,-26
909,0,2022-09-30T20:10:14.043477,1378280,1124,-22,1422,-1469,-323,-1317,96,120,-26
910,0,2022-09-30T20:10:14.050445,1378286,1124,-22,1422,-1469,-323,-1317,96,120,-26
911,0,2022-09-30T20:10:14.056080,1378292,1125,-31,1429,-1530,-308,-1401,96,120,-26
912,0,2022-09-30T20:10:14.062716,1378299,1125,-31,1429,-1530,-308,-1401,96,120,-26
913,0,2022-09-30T20:10:14.069506,1378306,1125,-31,1429,-1530,-308,-1401,96,120,-26
914,0,2022-09-30T20:10:14.075112,1378311,1130,-31,1428,-1527,-271,-1465,96,120,-26
915,0,2022-09-30T20:10:14.081851,1378318,1130,-31,1428,-1527,-271,-1465,96,120,-26
916,0,2022-09-30T20:10:14.088643,1378325,1130,-31,1428,-1527,-271,-1465,96,120,-26
917,0,2022-09-30T20:10:14.093893,1378330,1136,-34,1429,-1547,-254,-1537,96,120,-26
918,0,2022-09-30T20:10:14.100858,1378337,1136,-34,1429,-1547,-254,-1537,96,120,-26
919,0,2022-09-30T20:10:14.106161,1378342,1136,-34,1429,-1547,-254,-1537,96,120,-26
920,0,2022-09-30T20:10:14.111039,1378348,1136,-34,1429,-1547,-254,-1537,96,120,-26
921,0,2022-09-30T20:10:14.116282,1378353,1137,-38,1436,-1610,-258,-1627,96,120,-26
922,0,2022-09-30T20:10:14.122692,1378359,1137,-38,1436,-1610,-258,-1627,96,120,-26
923,0,2022-09-30T20:10:14.129223,1378366,1137,-38,1436,-1610,-258,-1627,96,120,-26
924,0,2022-09-30T20:10:14.134038,1378371,1127,-39,1434,-1692,-300,-1742,96,120,-26
925,0,2022-09-30T20:10:14.140166,1378376,1127,-39,1434,-1692,-300,-1742,96,120,-26
926,0,2022-09-30T20:10:14.146260,1378383,1127,-39,1434,-1692,-300,-1742,96,120,-26
927,0,2022-09-30T20:10:14.151938,1378388,1127,-39,1434,-1692,-300,-1742,96,120,-26
928,0,2022-09-30T20:10:14.157421,1378394,1118,-37,1436,-1756,-340,-1842,96,108,-24
929,0,2022-09-30T20:10:14.163489,1378400,1118,-37,1436,-1756,-340,-1842,96,108,-24
930,0,2022-09-30T20:10:14.169840,1378406,1118,-37,1436,-1756,-340,-1842,96,108,-24
931,0,2022-09-30T20:10:14.175623,1378411,1108,-32,1428,-1785,-324,-1929,96,108,-24
932,0,2022-09-30T20:10:14.180556,1378417,1108,-32,1428,-1785,-324,-1929,96,108,-24
933,0,2022-09-30T20:10:14.186537,1378423,1108,-32,1428,-1785,-324,-1929,96,108,-24
934,0,2022-09-30T20:10:14.191757,1378428,1108,-32,1428,-1785,-324,-1929,96,108,-24
935,0,2022-09-30T20:10:14.198998,1378435,1118,-28,1428,-1796,-257,-2021,96,108,-24
936,0,2022-09-30T20:10:14.206247,1378443,1118,-28,1428,-1796,-257,-2021,96,108,-24
937,0,2022-09-30T20:10:14.213073,1378449,1118,-28,1428,-1796,-257,-2021,96,108,-24
938,0,2022-09-30T20:10:14.218771,1378455,1122,-26,1427,-1861,-229,-2127,96,108,-24
939,0,2022-09-30T20:10:14.226364,1378462,1122,-26,1427,-1861,-229,-2127,96,108,-24
940,0,2022-09-30T20:10:14.233207,1378469,1122,-26,1427,-1861,-229,-2127,96,108,-24
941,0,2022-09-30T20:10:14.242489,1378478,1122,-27,1426,-1937,-236,-2255,96,108,-24
942,0,2022-09-30T20:10:14.251470,1378487,1122,-27,1426,-1937,-236,-2255,96,108,-24
943,0,2022-09-30T20:10:14.259032,1378495,1117,-29,1421,-1978,-223,-2367,96,108,-24
944,0,2022-09-30T20:10:14.265373,1378502,1117,-29,1421,-1978,-223,-2367,96,108,-24
945,0,2022-09-30T20:10:14.271668,1378508,1117,-29,1421,-1978,-223,-2367,96,108,-24
946,0,2022-09-30T20:10:14.281297,1378518,1122,-30,1438,-2009,-217,-2447,92,128,-24
947,0,2022-09-30T20:10:14.288894,1378526,1122,-30,1438,-2009,-217,-2447,92,128,-24
948,0,2022-09-30T20:10:14.294420,1378531,1122,-30,1438,-2009,-217,-2447,92,128,-24
949,0,2022-09-30T20:10:14.301336,1378536,1122,-30,1438,-2009,-217,-2447,92,128,-24
950,0,2022-09-30T20:10:14.310487,1378546,1122,-30,1438,-2009,-217,-2447,92,128,-24
951,0,2022-09-30T20:10:14.319131,1378554,1117,-34,1436,-2152,-186,-2611,92,128,-24
952,0,2022-09-30T20:10:14.332922,1378569,1117,-34,1436,-2152,-186,-2611,92,128,-24
953,0,2022-09-30T20:10:14.341246,1378578,1115,-33,1428,-2226,-137,-2786,92,128,-24
954,0,2022-09-30T20:10:14.352045,1378587,1115,-33,1428,-2226,-137,-2786,92,128,-24
955,0,2022-09-30T20:10:14.361870,1378598,1123,-33,1421,-2301,-139,-3021,92,128,-24
956,0,2022-09-30T20:10:14.371082,1378607,1123,-33,1421,-2301,-139,-3021,92,128,-24
957,0,2022-09-30T20:10:14.380647,1378617,1140,-35,1432,-2351,-195,-3146,92,128,-24
958,0,2022-09-30T20:10:14.388225,1378624,1140,-35,1432,-2351,-195,-3146,92,128,-24
959,0,2022-09-30T20:10:14.393876,1378630,1122,-41,1440,-2389,-262,-3097,92,128,-24
960,0,2022-09-30T20:10:14.406919,1378639,1122,-41,1440,-2389,-262,-3097,92,128,-24
961,0,2022-09-30T20:10:14.415661,1378652,1117,-41,1436,-2431,-262,-3101,96,132,-22
962,0,2022-09-30T20:10:14.424092,1378660,1117,-41,1436,-2431,-262,-3101,96,132,-22
963,0,2022-09-30T20:10:14.430480,1378666,1117,-41,1436,-2431,-262,-3101,96,132,-22
964,0,2022-09-30T20:10:14.436786,1378673,1104,-25,1430,-2524,-254,-3340,96,132,-22
965,0,2022-09-30T20:10:14.444240,1378680,1104,-25,1430,-2524,-254,-3340,96,132,-22
966,0,2022-09-30T20:10:14.451656,1378688,1104,-25,1430,-2524,-254,-3340,96,132,-22
967,0,2022-09-30T20:10:14.461636,1378698,1101,-18,1422,-2622,-225,-3697,96,132,-22
968,0,2022-09-30T20:10:14.471484,1378708,1101,-18,1422,-2622,-225,-3697,96,132,-22
969,0,2022-09-30T20:10:14.481162,1378717,1104,-26,1431,-2708,-119,-3923,96,132,-22
970,0,2022-09-30T20:10:14.493413,1378729,1104,-26,1431,-2708,-119,-3923,96,132,-22
971,0,2022-09-30T20:10:14.501453,1378738,1113,-34,1442,-2743,-61,-3908,96,132,-22
972,0,2022-09-30T20:10:14.508981,1378746,1113,-34,1442,-2743,-61,-3908,96,132,-22
973,0,2022-09-30T20:10:14.514251,1378751,1117,-42,1432,-2759,-51,-3839,96,132,-22
974,0,2022-09-30T20:10:14.520699,1378757,1117,-42,1432,-2759,-51,-3839,96,132,-22
975,0,2022-09-30T20:10:14.528221,1378764,1117,-42,1432,-2759,-51,-3839,96,132,-22
976,0,2022-09-30T20:10:14.535517,1378771,1105,-40,1435,-2866,-84,-3900,97,131,-15
977,0,2022-09-30T20:10:14.541551,1378777,1105,-40,1435,-2866,-84,-3900,97,131,-15
978,0,2022-09-30T20:10:14.549380,1378785,1105,-40,1435,-2866,-84,-3900,97,131,-15
979,0,2022-09-30T20:10:14.555395,1378791,1101,-35,1438,-3026,-106,-4115,97,131,-15
980,0,2022-09-30T20:10:14.564003,1378800,1101,-35,1438,-3026,-106,-4115,97,131,-15
981,0,2022-09-30T20:10:14.572048,1378807,1101,-35,1438,-3026,-106,-4115,97,131,-15
982,0,2022-09-30T20:10:14.581242,1378818,1101,-25,1436,-3130,-97,-4332,97,131,-15
983,0,2022-09-30T20:10:14.589914,1378826,1101,-25,1436,-3130,-97,-4332,97,131,-15
984,0,2022-09-30T20:10:14.595203,1378832,1108,-23,1444,-3129,-82,-4474,97,131,-15
985,0,2022-09-30T20:10:14.605389,1378841,1108,-23,1444,-3129,-82,-4474,97,131,-15
986,0,2022-09-30T20:10:14.612273,1378848,1108,-23,1444,-3129,-82,-4474,97,131,-15
987,0,2022-09-30T20:10:14.617605,1378854,1107,-21,1440,-3116,-99,-4562,97,131,-15
988,0,2022-09-30T20:10:14.628034,1378864,1107,-21,1440,-3116,-99,-4562,97,131,-15
989,0,2022-09-30T20:10:14.637902,1378874,1102,-23,1435,-3141,-97,-4610,97,131,-15
990,0,2022-09-30T20:10:14.645205,1378881,1102,-23,1435,-3141,-97,-4610,97,131,-15
991,0,2022-09-30T20:10:14.653671,1378889,1102,-23,1435,-3141,-97,-4610,97,131,-15
992,0,2022-09-30T20:10:14.662821,1378898,1096,-12,1432,-3195,-50,-4712,97,131,-15
993,0,2022-09-30T20:10:14.671193,1378908,1096,-12,1432,-3195,-50,-4712,97,131,-15
994,0,2022-09-30T20:10:14.678681,1378914,1094,-11,1435,-3274,-17,-4928,106,134,-20
995,0,2022-09-30T20:10:14.686529,1378923,1094,-11,1435,-3274,-17,-4928,106,134,-20
996,0,2022-09-30T20:10:14.693091,1378929,1094,-11,1435,-3274,-17,-4928,106,134,-20
997,0,2022-09-30T20:10:14.699837,1378935,1097,-12,1448,-3335,11,-5144,106,134,-20
998,0,2022-09-30T20:10:14.710197,1378946,1097,-12,1448,-3335,11,-5144,106,134,-20
999,0,2022-09-30T20:10:14.715532,1378952,1099,-9,1454,-3414,17,-5300,106,134,-20
1000,0,2022-09-30T20:10:14.722996,1378959,1099,-9,1454,-3414,17,-5300,106,134,-20
1001,0,2022-09-30T20:10:14.733702,1378970,1099,-9,1454,-3414,17,-5300,106,134,-20
1002,0,2022-09-30T20:10:14.739305,1378975,1101,-11,1452,-3486,9,-5369,106,134,-20
1003,0,2022-09-30T20:10:14.745328,1378982,1101,-11,1452,-3486,9,-5369,106,134,-20
1004,0,2022-09-30T20:10:14.754036,1378989,1101,-11,1452,-3486,9,-5369,106,134,-20
1005,0,2022-09-30T20:10:14.762189,1378999,1098,-12,1454,-3540,-7,-5397,106,134,-20
1006,0,2022-09-30T20:10:14.770047,1379007,1098,-12,1454,-3540,-7,-5397,106,134,-20
1007,0,2022-09-30T20:10:14.776483,1379012,1095,-6,1448,-3609,-29,-5447,106,134,-20
1008,0,2022-09-30T20:10:14.786319,1379022,1095,-6,1448,-3609,-29,-5447,106,134,-20
1009,0,2022-09-30T20:10:14.791889,1379028,1095,-6,1448,-3609,-29,-5447,106,134,-20
1010,0,2022-09-30T20:10:14.798379,1379034,1086,2,1452,-3698,-47,-5533,111,149,-17
1011,0,2022-09-30T20:10:14.808995,1379045,1086,2,1452,-3698,-47,-5533,111,149,-17
1012,0,2022-09-30T20:10:14.815793,1379052,1085,4,1441,-3772,-42,-5650,111,149,-17
1013,0,2022-09-30T20:10:14.822597,1379058,1085,4,1441,-3772,-42,-5650,111,149,-17
1014,0,2022-09-30T20:10:14.834209,1379068,1085,4,1441,-3772,-42,-5650,111,149,-17
1015,0,2022-09-30T20:10:14.839065,1379076,1086,8,1446,-3834,0,-5780,111,149,-17
1016,0,2022-09-30T20:10:14.845311,1379082,1086,8,1446,-3834,0,-5780,111,149,-17
1017,0,2022-09-30T20:10:14.853758,1379087,1086,8,1446,-3834,0,-5780,111,149,-17
1018,0,2022-09-30T20:10:14.862978,1379099,1093,7,1455,-3888,42,-5911,111,149,-17
1019,0,2022-09-30T20:10:14.868994,1379105,1093,7,1455,-3888,42,-5911,111,149,-17
1020,0,2022-09-30T20:10:14.875336,1379110,1093,7,1455,-3888,42,-5911,111,149,-17
1021,0,2022-09-30T20:10:14.882051,1379118,1100,4,1460,-3941,45,-5992,111,149,-17
1022,0,2022-09-30T20:10:14.888678,1379125,1100,4,1460,-3941,45,-5992,111,149,-17
1023,0,2022-09-30T20:10:14.894080,1379131,1100,4,1460,-3941,45,-5992,111,149,-17
1024,0,2022-09-30T20:10:14.901377,1379136,1101,-2,1452,-3980,11,-6029,111,149,-17
1025,0,2022-09-30T20:10:14.910678,1379146,1101,-2,1452,-3980,11,-6029,111,149,-17
1026,0,2022-09-30T20:10:14.917466,1379153,1089,-1,1462,-4055,-34,-6069,120,156,-10
1027,0,2022-09-30T20:10:14.925165,1379161,1089,-1,1462,-4055,-34,-6069,120,156,-10
1028,0,2022-09-30T20:10:14.930708,1379167,1089,-1,1462,-4055,-34,-6069,120,156,-10
1029,0,2022-09-30T20:10:14.936596,1379173,1087,5,1453,-4124,-45,-6138,120,156,-10
1030,0,2022-09-30T20:10:14.943203,1379180,1087,5,1453,-4124,-45,-6138,120,156,-10
1031,0,2022-09-30T20:10:14.951669,1379187,1087,5,1453,-4124,-45,-6138,120,156,-10
1032,0,2022-09-30T20:10:14.960316,1379196,1084,3,1449,-4216,-55,-6200,120,156,-10
1033,0,2022-09-30T20:10:14.968556,1379205,1084,3,1449,-4216,-55,-6200,120,156,-10
1034,0,2022-09-30T20:10:14.974915,1379211,1090,-1,1456,-4295,-47,-6269,120,156,-10
1035,0,2022-09-30T20:10:14.983938,1379220,1090,-1,1456,-4295,-47,-6269,120,156,-10
1036,0,2022-09-30T20:10:14.992144,1379228,1090,-1,1456,-4295,-47,-6269,120,156,-10
1037,0,2022-09-30T20:10:15.000151,1379235,1098,-6,1458,-4312,-30,-6326,120,156,-10
1038,0,2022-09-30T20:10:15.009917,1379246,1098,-6,1458,-4312,-30,-6326,120,156,-10
1039,0,2022-09-30T20:10:15.015564,1379252,1104,-8,1455,-4349,-52,-6362,120,156,-10
1040,0,2022-09-30T20:10:15.022863,1379259,1104,-8,1455,-4349,-52,-6362,120,156,-10
1041,0,2022-09-30T20:10:15.033234,1379269,1104,-8,1455,-4349,-52,-6362,120,156,-10
1042,0,2022-09-30T20:10:15.040056,1379276,1096,-4,1445,-4396,-58,-6388,120,156,-10
1043,0,2022-09-30T20:10:15.048342,1379284,1096,-4,1445,-4396,-58,-6388,120,156,-10
1044,0,2022-09-30T20:10:15.057268,1379294,1091,-2,1446,-4443,-44,-6455,143,169,-7
1045,0,2022-09-30T20:10:15.067421,1379304,1091,-2,1446,-4443,-44,-6455,143,169,-7
1046,0,2022-09-30T20:10:15.075279,1379310,1091,-2,1446,-4443,-44,-6455,143,169,-7
1047,0,2022-09-30T20:10:15.086468,1379322,1101,0,1441,-4487,-26,-6555,143,169,-7
1048,0,2022-09-30T20:10:15.091938,1379329,1101,0,1441,-4487,-26,-6555,143,169,-7
1049,0,2022-09-30T20:10:15.097901,1379334,1109,-1,1451,-4539,-39,-6636,143,169,-7
1050,0,2022-09-30T20:10:15.108975,1379345,1109,-1,1451,-4539,-39,-6636,143,169,-7
1051,0,2022-09-30T20:10:15.116821,1379353,1106,-11,1450,-4575,-101,-6636,143,169,-7
1052,0,2022-09-30T20:10:15.123988,1379359,1106,-11,1450,-4575,-101,-6636,143,169,-7
1053,0,2022-09-30T20:10:15.132945,1379369,1106,-11,1450,-4575,-101,-6636,143,169,-7
1054,0,2022-09-30T20:10:15.138614,1379375,1086,-15,1441,-4574,-90,-6621,143,169,-7
1055,0,2022-09-30T20:10:15.147816,1379384,1086,-15,1441,-4574,-90,-6621,143,169,-7
1056,0,2022-09-30T20:10:15.155361,1379391,1081,-10,1430,-4582,-6,-6719,143,169,-7
1057,0,2022-09-30T20:10:15.164335,1379401,1081,-10,1430,-4582,-6,-6719,143,169,-7
1058,0,2022-09-30T20:10:15.169573,1379406,1081,-10,1430,-4582,-6,-6719,143,169,-7
1059,0,2022-09-30T20:10:15.176570,1379411,1104,-4,1432,-4604,60,-6887,154,174,-7
1060,0,2022-09-30T20:10:15.188367,1379425,1104,-4,1432,-4604,60,-6887,154,174,-10
1061,0,2022-09-30T20:10:15.194754,1379431,1108,-17,1440,-4679,30,-6949,154,174,-10
1062,0,2022-09-30T20:10:15.206134,1379441,1108,-17,1440,-4679,30,-6949,154,174,-10
1063,0,2022-09-30T20:10:15.212997,1379449,1108,-17,1440,-4679,30,-6949,154,174,-10
1064,0,2022-09-30T20:10:15.221127,1379456,1104,-31,1441,-4668,-11,-6834,154,174,-10
1065,0,2022-09-30T20:10:15.230977,1379468,1104,-31,1441,-4668,-11,-6834,154,174,-10
1066,0,2022-09-30T20:10:15.239068,1379475,1096,-25,1434,-4606,37,-6769,154,174,-10
1067,0,2022-09-30T20:10:15.247178,1379483,1096,-25,1434,-4606,37,-6769,154,174,-10
1068,0,2022-09-30T20:10:15.257827,1379494,1085,-11,1430,-4620,51,-6962,154,174,-10
1069,0,2022-09-30T20:10:15.265893,1379501,1085,-11,1430,-4620,51,-6962,154,174,-10
1070,0,2022-09-30T20:10:15.275653,1379512,1090,-10,1443,-4665,105,-7230,154,174,-10
1071,0,2022-09-30T20:10:15.282633,1379519,1090,-10,1443,-4665,105,-7230,154,174,-10
1072,0,2022-09-30T20:10:15.290959,1379527,1090,-10,1443,-4665,105,-7230,154,174,-10
1073,0,2022-09-30T20:10:15.298699,1379534,1087,-13,1437,-4748,142,-7349,154,174,-10
1074,0,2022-09-30T20:10:15.312962,1379549,1087,-13,1437,-4748,142,-7349,154,174,-10
1075,0,2022-09-30T20:10:15.324563,1379560,1095,-24,1452,-4725,181,-7235,164,180,-8
1076,0,2022-09-30T20:10:15.333395,1379569,1095,-24,1452,-4725,181,-7235,164,180,-8
1077,0,2022-09-30T20:10:15.340442,1379575,1098,-22,1437,-4667,200,-7130,164,180,-8
1078,0,2022-09-30T20:10:15.349035,1379586,1098,-22,1437,-4667,200,-7130,164,180,-8
1079,0,2022-09-30T20:10:15.356463,1379593,1099,-25,1443,-4730,177,-7171,164,180,-8
1080,0,2022-09-30T20:10:15.366396,1379600,1099,-25,1443,-4730,177,-7171,164,180,-8
1081,0,2022-09-30T20:10:15.374412,1379610,1099,-25,1443,-4730,177,-7171,164,180,-8
1082,0,2022-09-30T20:10:15.380509,1379616,1101,-19,1439,-4851,172,-7293,164,180,-8
1083,0,2022-09-30T20:10:15.390782,1379628,1101,-19,1439,-4851,172,-7293,164,180,-8
1084,0,2022-09-30T20:10:15.396390,1379633,1099,-18,1453,-4865,204,-7359,164,180,-8
1085,0,2022-09-30T20:10:15.406334,1379642,1099,-18,1453,-4865,204,-7359,164,180,-8
1086,0,2022-09-30T20:10:15.414762,1379651,1099,-18,1453,-4865,204,-7359,164,180,-8
1087,0,2022-09-30T20:10:15.420626,1379656,1112,-22,1454,-4767,197,-7309,164,180,-8
1088,0,2022-09-30T20:10:15.432638,1379668,1112,-22,1454,-4767,197,-7309,164,180,-8
1089,0,2022-09-30T20:10:15.441350,1379678,1099,-17,1456,-4720,141,-7230,180,172,0
1090,0,2022-09-30T20:10:15.450410,1379686,1099,-17,1456,-4720,141,-7230,180,172,0
1091,0,2022-09-30T20:10:15.456957,1379693,1090,-18,1445,-4736,102,-7206,180,172,0
1092,0,2022-09-30T20:10:15.467685,1379704,1090,-18,1445,-4736,102,-7206,180,172,0
1093,0,2022-09-30T20:10:15.474358,1379709,1090,-18,1445,-4736,102,-7206,180,172,0
1094,0,2022-09-30T20:10:15.483676,1379720,1080,-12,1433,-4740,115,-7286,180,172,0
1095,0,2022-09-30T20:10:15.492883,1379729,1080,-12,1433,-4740,115,-7286,180,172,0
1096,0,2022-09-30T20:10:15.501070,1379735,1078,-10,1436,-4754,150,-7383,180,172,0
1097,0,2022-09-30T20:10:15.511188,1379747,1078,-10,1436,-4754,150,-7383,180,172,0
1098,0,2022-09-30T20:10:15.518679,1379755,1082,-4,1444,-4764,207,-7465,180,172,0
1099,0,2022-09-30T20:10:15.526723,1379762,1082,-4,1444,-4764,207,-7465,180,172,0
1100,0,2022-09-30T20:10:15.536271,1379773,1088,-5,1455,-4770,231,-7479,180,172,0
1101,0,2022-09-30T20:10:15.543622,1379780,1088,-5,1455,-4770,231,-7479,180,172,0
1102,0,2022-09-30T20:10:15.554812,1379790,1088,-5,1455,-4770,231,-7479,180,172,0
1103,0,2022-09-30T20:10:15.563475,1379800,1083,-7,1457,-4771,223,-7411,180,172,0
1104,0,2022-09-30T20:10:15.572016,1379808,1083,-7,1457,-4771,223,-7411,180,172,0
1105,0,2022-09-30T20:10:15.582638,1379819,1080,-13,1461,-4771,210,-7366,199,185,-3
1106,0,2022-09-30T20:10:15.592612,1379828,1080,-13,1461,-4771,210,-7366,199,185,-3
1107,0,2022-09-30T20:10:15.601126,1379834,1080,-11,1453,-4786,210,-7351,199,185,-3
1108,0,2022-09-30T20:10:15.610820,1379847,1080,-11,1453,-4786,210,-7351,199,185,-3
1109,0,2022-09-30T20:10:15.617879,1379854,1073,-9,1454,-4809,228,-7356,199,185,-3
1110,0,2022-09-30T20:10:15.629049,1379865,1073,-9,1454,-4809,228,-7356,199,185,-3
1111,0,2022-09-30T20:10:15.636078,1379872,1076,-9,1459,-4826,239,-7376,199,185,-3
1112,0,2022-09-30T20:10:15.653781,1379886,1076,-9,1459,-4826,239,-7376,199,185,-3
1113,0,2022-09-30T20:10:15.662962,1379899,1081,-13,1466,-4837,245,-7406,199,185,-3
1114,0,2022-09-30T20:10:15.676857,1379910,1081,-13,1466,-4837,245,-7406,199,185,-3
1115,0,2022-09-30T20:10:15.684626,1379919,1092,-23,1463,-4804,227,-7422,199,185,-3
1116,0,2022-09-30T20:10:15.694357,1379931,1092,-23,1463,-4804,227,-7422,199,185,-3
1117,0,2022-09-30T20:10:15.705903,1379942,1091,-24,1468,-4790,187,-7376,213,185,-3
1118,0,2022-09-30T20:10:15.717975,1379954,1096,-12,1456,-4802,136,-7317,213,185,-3
1119,0,2022-09-30T20:10:15.726087,1379961,1096,-12,1456,-4802,136,-7317,213,185,-3
1120,0,2022-09-30T20:10:15.736557,1379973,1088,-11,1451,-4799,70,-7279,213,185,-3
1121,0,2022-09-30T20:10:15.749611,1379986,1088,-11,1451,-4799,70,-7279,213,185,-3
1122,0,2022-09-30T20:10:15.756672,1379993,1082,-4,1457,-4788,14,-7276,213,185,-3
1123,0,2022-09-30T20:10:15.765343,1380001,1082,-4,1457,-4788,14,-7276,213,185,-3
1124,0,2022-09-30T20:10:15.772950,1380009,1082,-4,1457,-4788,14,-7276,213,185,-3
1125,0,2022-09-30T20:10:15.778764,1380015,1093,-3,1447,-4775,11,-7257,213,185,-3
1126,0,2022-09-30T20:10:15.786565,1380023,1093,-3,1447,-4775,11,-7257,213,185,-3
1127,0,2022-09-30T20:10:15.795078,1380031,1093,-3,1447,-4775,11,-7257,213,185,-3
1128,0,2022-09-30T20:10:15.804224,1380039,1096,-4,1447,-4744,75,-7207,213,185,-3
1129,0,2022-09-30T20:10:15.813833,1380049,1096,-4,1447,-4744,75,-7207,213,185,-3
1130,0,2022-09-30T20:10:15.820401,1380057,1104,-7,1451,-4690,80,-7158,226,176,-6
1131,0,2022-09-30T20:10:15.830921,1380067,1104,-7,1451,-4690,80,-7158,226,176,-6
1132,0,2022-09-30T20:10:15.836346,1380073,1103,-16,1450,-4685,15,-7103,226,176,-6
1133,0,2022-09-30T20:10:15.843599,1380080,1103,-16,1450,-4685,15,-7103,226,176,-6
1134,0,2022-09-30T20:10:15.851696,1380087,1103,-16,1450,-4685,15,-7103,226,176,-6
1135,0,2022-09-30T20:10:15.860510,1380098,1097,-4,1444,-4673,-51,-7067,226,176,-6
1136,0,2022-09-30T20:10:15.869483,1380106,1097,-4,1444,-4673,-51,-7067,226,176,-6
1137,0,2022-09-30T20:10:15.875695,1380111,1097,-4,1444,-4673,-51,-7067,226,176,-6
1138,0,2022-09-30T20:10:15.886111,1380122,1098,5,1437,-4650,-66,-7023,226,176,-6
1139,0,2022-09-30T20:10:15.895518,1380132,1097,10,1442,-4581,-46,-6951,226,176,-6
1140,0,2022-09-30T20:10:15.907050,1380143,1097,10,1442,-4581,-46,-6951,226,176,-6
1141,0,2022-09-30T20:10:15.915564,1380152,1097,10,1442,-4581,-46,-6951,226,176,-6
1142,0,2022-09-30T20:10:15.921994,1380158,1098,13,1439,-4518,-24,-6891,226,176,-6
1143,0,2022-09-30T20:10:15.935965,1380172,1098,13,1439,-4518,-24,-6891,226,176,-6
1144,0,2022-09-30T20:10:15.943010,1380179,1093,13,1437,-4475,-43,-6783,226,176,-6
1145,0,2022-09-30T20:10:15.952442,1380188,1093,13,1437,-4475,-43,-6783,226,176,-6
1146,0,2022-09-30T20:10:15.959210,1380196,1092,11,1438,-4415,6,-6730,236,182,-12
1147,0,2022-09-30T20:10:15.969787,1380206,1092,11,1438,-4415,6,-6730,236,182,-12
1148,0,2022-09-30T20:10:15.977125,1380213,1098,16,1430,-4338,45,-6674,236,182,-12
1149,0,2022-09-30T20:10:15.987605,1380224,1098,16,1430,-4338,45,-6674,236,182,-12
1150,0,2022-09-30T20:10:15.994775,1380232,1098,16,1430,-4338,45,-6674,236,182,-12
1151,0,2022-09-30T20:10:16.001367,1380237,1101,24,1426,-4317,41,-6551,236,182,-12
1152,0,2022-09-30T20:10:16.009752,1380246,1101,24,1426,-4317,41,-6551,236,182,-12
1153,0,2022-09-30T20:10:16.016850,1380253,1093,31,1432,-4290,93,-6452,236,182,-12
1154,0,2022-09-30T20:10:16.026933,1380262,1093,31,1432,-4290,93,-6452,236,182,-12
1155,0,2022-09-30T20:10:16.033038,1380269,1093,31,1432,-4290,93,-6452,236,182,-12
1156,0,2022-09-30T20:10:16.039297,1380276,1108,21,1437,-4250,107,-6362,236,182,-12
1157,0,2022-09-30T20:10:16.049289,1380283,1108,21,1437,-4250,107,-6362,236,182,-12
1158,0,2022-09-30T20:10:16.061996,1380298,1131,15,1441,-4181,90,-6279,236,182,-12
1159,0,2022-09-30T20:10:16.071494,1380307,1131,15,1441,-4181,90,-6279,236,182,-12
1160,0,2022-09-30T20:10:16.080981,1380316,1131,-7,1449,-4157,28,-6099,254,172,-26
1161,0,2022-09-30T20:10:16.090445,1380327,1131,-7,1449,-4157,28,-6099,254,172,-26
1162,0,2022-09-30T20:10:16.098945,1380335,1121,-13,1451,-4094,-8,-5840,254,172,-26
1163,0,2022-09-30T20:10:16.112516,1380348,1121,-13,1451,-4094,-8,-5840,254,172,-26
1164,0,2022-09-30T20:10:16.120007,1380357,1122,-6,1450,-3995,-15,-5739,254,172,-26
1165,0,2022-09-30T20:10:16.130611,1380367,1122,-6,1450,-3995,-15,-5739,254,172,-26
1166,0,2022-09-30T20:10:16.138599,1380375,1100,3,1429,-3976,-126,-5822,254,172,-26
1167,0,2022-09-30T20:10:16.148608,1380384,1100,3,1429,-3976,-126,-5822,254,172,-26
1168,0,2022-09-30T20:10:16.159042,1380396,1094,4,1427,-3893,-88,-5834,254,172,-26
1169,0,2022-09-30T20:10:16.169698,1380406,1094,4,1427,-3893,-88,-5834,254,172,-26
1170,0,2022-09-30T20:10:16.178538,1380414,1106,24,1441,-3887,-25,-5708,254,172,-26
1171,0,2022-09-30T20:10:16.189366,1380425,1106,24,1441,-3887,-25,-5708,254,172,-26
1172,0,2022-09-30T20:10:16.196336,1380432,1117,19,1431,-3889,-13,-5471,254,172,-26
1173,0,2022-09-30T20:10:16.210432,1380447,1117,19,1431,-3889,-13,-5471,254,172,-26
1174,0,2022-09-30T20:10:16.217263,1380454,1111,16,1436,-3775,6,-5291,272,170,-26
1175,0,2022-09-30T20:10:16.227415,1380460,1111,16,1436,-3775,6,-5291,272,170,-26
1176,0,2022-09-30T20:10:16.238158,1380474,1098,20,1432,-3690,-7,-5170,272,170,-26
1177,0,2022-09-30T20:10:16.245808,1380483,1098,20,1432,-3690,-7,-5170,272,170,-26
1178,0,2022-09-30T20:10:16.258859,1380495,1096,31,1440,-3653,-58,-5070,272,170,-26
1179,0,2022-09-30T20:10:16.268077,1380504,1096,31,1440,-3653,-58,-5070,272,170,-26
1180,0,2022-09-30T20:10:16.278095,1380512,1107,29,1446,-3521,-29,-4970,272,170,-26
1181,0,2022-09-30T20:10:16.290332,1380526,1107,29,1446,-3521,-29,-4970,272,170,-26
1182,0,2022-09-30T20:10:16.299803,1380535,1124,25,1450,-3332,-22,-4745,272,170,-26
1183,0,2022-09-30T20:10:16.312415,1380549,1124,25,1450,-3332,-22,-4745,272,170,-26
1184,0,2022-09-30T20:10:16.329433,1380558,1120,22,1450,-3217,-100,-4420,272,170,-26
1185,0,2022-09-30T20:10:16.342333,1380579,1114,28,1438,-3148,-159,-4167,272,172,-26
1186,0,2022-09-30T20:10:16.358439,1380590,1114,28,1438,-3148,-159,-4167,272,172,-26
1187,0,2022-09-30T20:10:16.367751,1380604,1116,26,1439,-3118,-231,-4047,272,172,-26
1188,0,2022-09-30T20:10:16.378658,1380613,1116,26,1439,-3118,-231,-4047,272,172,-26
1189,0,2022-09-30T20:10:16.391586,1380628,1107,20,1434,-3050,-264,-3952,272,172,-26
1190,0,2022-09-30T20:10:16.402413,1380637,1107,23,1433,-2937,-244,-3865,272,172,-26
1191,0,2022-09-30T20:10:16.416391,1380653,1126,20,1448,-2828,-240,-3729,272,172,-26
1192,0,2022-09-30T20:10:16.430523,1380665,1126,20,1448,-2828,-240,-3729,272,172,-26
1193,0,2022-09-30T20:10:16.439640,1380676,1137,11,1444,-2718,-291,-3497,272,172,-26
1194,0,2022-09-30T20:10:16.449387,1380685,1137,11,1444,-2718,-291,-3497,272,172,-26
1195,0,2022-09-30T20:10:16.460680,1380697,1128,9,1444,-2621,-370,-3260,286,160,-36
1196,0,2022-09-30T20:10:16.470705,1380707,1128,9,1444,-2621,-370,-3260,286,160,-36
1197,0,2022-09-30T20:10:16.478767,1380715,1117,22,1436,-2547,-437,-3070,286,160,-36
1198,0,2022-09-30T20:10:16.489445,1380725,1117,22,1436,-2547,-437,-3070,286,160,-36
1199,0,2022-09-30T20:10:16.497739,1380734,1120,29,1429,-2461,-457,-2919,286,160,-36
1200,0,2022-09-30T20:10:16.514100,1380751,1120,29,1429,-2461,-457,-2919,286,160,-36
1201,0,2022-09-30T20:10:16.523865,1380760,1124,30,1435,-2344,-470,-2767,286,160,-36
1202,0,2022-09-30T20:10:16.538489,1380775,1129,26,1438,-2226,-506,-2579,286,160,-36
1203,0,2022-09-30T20:10:16.547015,1380783,1129,26,1438,-2226,-506,-2579,286,160,-36
1204,0,2022-09-30T20:10:16.557594,1380794,1129,22,1428,-2081,-542,-2370,286,160,-36
1205,0,2022-09-30T20:10:16.568863,1380805,1129,22,1428,-2081,-542,-2370,286,160,-36
1206,0,2022-09-30T20:10:16.579514,1380815,1131,26,1425,-1934,-546,-2156,286,160,-36
1207,0,2022-09-30T20:10:16.591227,1380828,1131,26,1425,-1934,-546,-2156,286,160,-36
1208,0,2022-09-30T20:10:16.602534,1380836,1135,35,1430,-1827,-553,-1942,287,151,-33
1209,0,2022-09-30T20:10:16.619515,1380855,1140,38,1430,-1711,-589,-1705,287,151,-33
1210,0,2022-09-30T20:10:16.636308,1380873,1140,38,1430,-1711,-589,-1705,287,151,-33
1211,0,2022-09-30T20:10:16.651646,1380885,1138,38,1431,-1586,-671,-1439,287,151,-33
1212,0,2022-09-30T20:10:16.667408,1380903,1142,30,1423,-1434,-724,-1182,287,151,-33
1213,0,2022-09-30T20:10:16.683279,1380914,1139,37,1422,-1245,-719,-966,287,151,-33
1214,0,2022-09-30T20:10:16.692635,1380929,1139,37,1422,-1245,-719,-966,287,151,-33
1215,0,2022-09-30T20:10:16.701127,1380937,1139,37,1422,-1245,-719,-966,287,151,-33
1216,0,2022-09-30T20:10:16.707295,1380943,1139,37,1422,-1245,-719,-966,287,151,-33
1217,0,2022-09-30T20:10:16.716945,1380954,1145,44,1427,-1061,-801,-502,287,151,-33
1218,0,2022-09-30T20:10:16.729548,1380963,1145,44,1427,-1061,-801,-502,284,152,-36
1219,0,2022-09-30T20:10:16.739897,1380976,1153,40,1433,-930,-805,-255,284,152,-36
1220,0,2022-09-30T20:10:16.748743,1380983,1153,40,1433,-930,-805,-255,284,152,-36
1221,0,2022-09-30T20:10:16.760384,1380997,1161,39,1422,-752,-828,61,284,152,-36
1222,0,2022-09-30T20:10:16.770961,1381007,1161,39,1422,-752,-828,61,284,152,-36
1223,0,2022-09-30T20:10:16.785782,1381021,1168,34,1413,-606,-864,338,284,152,-36
1224,0,2022-09-30T20:10:16.799736,1381035,1157,30,1410,-510,-889,520,284,152,-36
1225,0,2022-09-30T20:10:16.806500,1381042,1157,30,1410,-510,-889,520,284,152,-36
1226,0,2022-09-30T20:10:16.815001,1381051,1157,30,1410,-510,-889,520,284,152,-36
1227,0,2022-09-30T20:10:16.821212,1381058,1160,35,1407,-422,-902,618,284,152,-36
1228,0,2022-09-30T20:10:16.838796,1381074,1169,41,1394,-294,-878,763,284,152,-36
1229,0,2022-09-30T20:10:16.849377,1381085,1169,41,1394,-294,-878,763,284,152,-36
1230,0,2022-09-30T20:10:16.861623,1381098,1183,49,1405,-156,-896,1000,295,155,-41
1231,0,2022-09-30T20:10:16.869859,1381106,1183,49,1405,-156,-896,1000,295,155,-41
1232,0,2022-09-30T20:10:16.881223,1381112,1183,49,1405,-156,-896,1000,295,155,-41
1233,0,2022-09-30T20:10:16.890145,1381127,1186,51,1397,-28,-944,1288,295,155,-41
1234,0,2022-09-30T20:10:16.901911,1381137,1178,54,1397,92,-963,1540,295,155,-41
1235,0,2022-09-30T20:10:16.915674,1381151,1178,54,1397,92,-963,1540,295,155,-41
1236,0,2022-09-30T20:10:16.926403,1381163,1174,57,1395,187,-992,1699,295,155,-41
1237,0,2022-09-30T20:10:16.936752,1381173,1174,57,1395,187,-992,1699,295,155,-41
1238,0,2022-09-30T20:10:16.945218,1381182,1192,56,1399,258,-1034,1864,295,155,-41
1239,0,2022-09-30T20:10:16.959482,1381195,1185,40,1404,346,-1087,2211,295,155,-41
1240,0,2022-09-30T20:10:16.970053,1381207,1185,40,1404,346,-1087,2211,295,155,-41
1241,0,2022-09-30T20:10:16.982843,1381220,1172,34,1402,487,-1077,2627,290,152,-32
1242,0,2022-09-30T20:10:16.997969,1381234,1165,39,1388,638,-1005,2830,290,152,-32
1243,0,2022-09-30T20:10:17.011985,1381249,1165,39,1388,638,-1005,2830,290,152,-32
1244,0,2022-09-30T20:10:17.021371,1381257,1159,50,1390,744,-936,2858,290,152,-32
1245,0,2022-09-30T20:10:17.035883,1381270,1159,50,1390,744,-936,2858,290,152,-32
1246,0,2022-09-30T20:10:17.045856,1381281,1158,41,1403,818,-875,2952,290,152,-32
1247,0,2022-09-30T20:10:17.058022,1381295,1147,38,1409,916,-860,3219,290,152,-32
1248,0,2022-09-30T20:10:17.068198,1381304,1147,38,1409,916,-860,3219,290,152,-32
1249,0,2022-09-30T20:10:17.077072,1381311,1147,38,1409,916,-860,3219,290,152,-32
1250,0,2022-09-30T20:10:17.087586,1381324,1156,26,1403,1082,-796,3602,290,152,-32
1251,0,2022-09-30T20:10:17.097716,1381334,1146,20,1403,1203,-780,3880,290,152,-32
1252,0,2022-09-30T20:10:17.118187,1381354,1145,24,1406,1231,-774,4007,277,155,-29
1253,0,2022-09-30T20:10:17.134543,1381371,1145,24,1406,1231,-774,4007,277,155,-29
1254,0,2022-09-30T20:10:17.147010,1381383,1136,23,1408,1246,-812,4126,277,155,-29
1255,0,2022-09-30T20:10:17.161245,1381397,1142,24,1430,1399,-776,4292,277,155,-29
1256,0,2022-09-30T20:10:17.171381,1381408,1142,24,1430,1399,-776,4292,277,155,-29
1257,0,2022-09-30T20:10:17.179985,1381416,1142,24,1430,1399,-776,4292,277,155,-29
1258,0,2022-09-30T20:10:17.190180,1381427,1142,24,1430,1399,-776,4292,277,155,-29
1259,0,2022-09-30T20:10:17.201518,1381436,1148,16,1422,1747,-851,4792,277,155,-29
1260,0,2022-09-30T20:10:17.219446,1381454,1135,13,1426,1879,-872,5030,277,155,-29
1261,0,2022-09-30T20:10:17.232929,1381469,1135,13,1426,1879,-872,5030,277,155,-29
1262,0,2022-09-30T20:10:17.243948,1381480,1128,18,1422,1926,-925,5141,267,163,-27
1263,0,2022-09-30T20:10:17.257214,1381491,1128,18,1422,1926,-925,5141,267,163,-27
1264,0,2022-09-30T20:10:17.268180,1381502,1128,28,1423,2016,-960,5188,267,163,-27
1265,0,2022-09-30T20:10:17.281156,1381518,1121,23,1434,2101,-949,5275,267,163,-27
1266,0,2022-09-30T20:10:17.291836,1381528,1121,23,1434,2101,-949,5275,267,163,-27
1267,0,2022-09-30T20:10:17.304417,1381537,1116,21,1443,2189,-927,5421,267,163,-27
1268,0,2022-09-30T20:10:17.318843,1381555,1118,20,1446,2289,-937,5637,267,163,-27
1269,0,2022-09-30T20:10:17.339138,1381574,1117,21,1445,2398,-960,5857,267,163,-27
1270,0,2022-09-30T20:10:17.350898,1381586,1117,21,1445,2398,-960,5857,267,163,-27
1271,0,2022-09-30T20:10:17.360252,1381597,1114,22,1443,2473,-1008,6045,251,171,-15
1272,0,2022-09-30T20:10:17.367565,1381604,1114,22,1443,2473,-1008,6045,251,171,-15
1273,0,2022-09-30T20:10:17.375373,1381611,1114,22,1443,2473,-1008,6045,251,171,-15
1274,0,2022-09-30T20:10:17.381671,1381617,1105,21,1452,2523,-1028,6183,251,171,-15
1275,0,2022-09-30T20:10:17.389093,1381625,1105,21,1452,2523,-1028,6183,251,171,-15
1276,0,2022-09-30T20:10:17.396326,1381633,1105,21,1452,2523,-1028,6183,251,171,-15
1277,0,2022-09-30T20:10:17.404242,1381639,1100,23,1452,2590,-1059,6255,251,171,-15
1278,0,2022-09-30T20:10:17.414316,1381650,1100,23,1452,2590,-1059,6255,251,171,-15
1279,0,2022-09-30T20:10:17.422716,1381659,1101,16,1457,2669,-1117,6370,251,171,-15
1280,0,2022-09-30T20:10:17.431943,1381668,1101,16,1457,2669,-1117,6370,251,171,-15
1281,0,2022-09-30T20:10:17.438025,1381675,1102,12,1467,2740,-1157,6544,251,171,-15
1282,0,2022-09-30T20:10:17.447392,1381684,1102,12,1467,2740,-1157,6544,251,171,-15
1283,0,2022-09-30T20:10:17.457172,1381693,1102,12,1467,2740,-1157,6544,251,171,-15
1284,0,2022-09-30T20:10:17.464004,1381700,1098,11,1468,2815,-1200,6718,251,171,-15
1285,0,2022-09-30T20:10:17.473006,1381709,1098,11,1468,2815,-1200,6718,251,171,-15
1286,0,2022-09-30T20:10:17.483322,1381719,1089,12,1457,2876,-1231,6864,251,171,-15
1287,0,2022-09-30T20:10:17.493379,1381729,1089,12,1457,2876,-1231,6864,251,171,-15
1288,0,2022-09-30T20:10:17.500694,1381736,1090,16,1470,2938,-1263,6951,240,182,-14
1289,0,2022-09-30T20:10:17.513013,1381749,1090,16,1470,2938,-1263,6951,240,182,-14
1290,0,2022-09-30T20:10:17.522454,1381758,1082,20,1473,2964,-1289,7056,240,182,-14
1291,0,2022-09-30T20:10:17.536209,1381773,1082,20,1473,2964,-1289,7056,240,182,-14
1292,0,2022-09-30T20:10:17.544102,1381780,1074,22,1468,3045,-1301,7215,240,182,-14
1293,0,2022-09-30T20:10:17.556355,1381791,1074,22,1468,3045,-1301,7215,240,182,-14
1294,0,2022-09-30T20:10:17.565341,1381801,1071,21,1459,3155,-1318,7402,240,182,-14
1295,0,2022-09-30T20:10:17.573883,1381810,1071,21,1459,3155,-1318,7402,240,182,-14
1296,0,2022-09-30T20:10:17.580085,1381816,1066,20,1454,3184,-1331,7529,240,182,-14
1297,0,2022-09-30T20:10:17.587547,1381824,1066,20,1454,3184,-1331,7529,240,182,-14
1298,0,2022-09-30T20:10:17.593355,1381830,1066,20,1454,3184,-1331,7529,240,182,-14
1299,0,2022-09-30T20:10:17.600174,1381835,1072,20,1464,3178,-1340,7604,240,182,-14
1300,0,2022-09-30T20:10:17.609095,1381846,1072,20,1464,3178,-1340,7604,240,182,-14
1301,0,2022-09-30T20:10:17.614991,1381852,1072,20,1464,3178,-1340,7604,240,182,-14
1302,0,2022-09-30T20:10:17.620722,1381857,1074,12,1475,3213,-1337,7697,219,185,-9
1303,0,2022-09-30T20:10:17.627490,1381863,1074,12,1475,3213,-1337,7697,219,185,-9
1304,0,2022-09-30T20:10:17.635342,1381872,1074,12,1475,3213,-1337,7697,219,185,-9
1305,0,2022-09-30T20:10:17.640737,1381877,1081,10,1482,3270,-1375,7842,219,185,-9
1306,0,2022-09-30T20:10:17.647332,1381883,1081,10,1482,3270,-1375,7842,219,185,-9
1307,0,2022-09-30T20:10:17.656715,1381894,1081,10,1482,3270,-1375,7842,219,185,-9
1308,0,2022-09-30T20:10:17.662558,1381899,1081,4,1477,3324,-1437,8021,219,185,-9
1309,0,2022-09-30T20:10:17.670867,1381907,1081,4,1477,3324,-1437,8021,219,185,-9
1310,0,2022-09-30T20:10:17.676620,1381913,1081,4,1477,3324,-1437,8021,219,185,-9
1311,0,2022-09-30T20:10:17.682186,1381918,1075,-5,1474,3338,-1501,8168,219,185,-9
1312,0,2022-09-30T20:10:17.690104,1381926,1075,-5,1474,3338,-1501,8168,219,185,-9
1313,0,2022-09-30T20:10:17.695603,1381932,1075,-5,1474,3338,-1501,8168,219,185,-9
1314,0,2022-09-30T20:10:17.701702,1381938,1078,-8,1470,3365,-1567,8255,219,185,-9
1315,0,2022-09-30T20:10:17.708841,1381946,1078,-8,1470,3365,-1567,8255,219,185,-9
1316,0,2022-09-30T20:10:17.715335,1381952,1078,-8,1470,3365,-1567,8255,219,185,-9
1317,0,2022-09-30T20:10:17.721031,1381957,1090,-15,1461,3384,-1594,8316,219,185,-9
1318,0,2022-09-30T20:10:17.727672,1381964,1090,-15,1461,3384,-1594,8316,219,185,-9
1319,0,2022-09-30T20:10:17.734261,1381970,1090,-15,1461,3384,-1594,8316,219,185,-9
1320,0,2022-09-30T20:10:17.739787,1381977,1094,-17,1466,3421,-1641,8391,219,185,-9
1321,0,2022-09-30T20:10:17.746125,1381983,1094,-17,1466,3421,-1641,8391,219,185,-9
1322,0,2022-09-30T20:10:17.753235,1381990,1094,-17,1466,3421,-1641,8391,219,185,-9
1323,0,2022-09-30T20:10:17.758613,1381995,1097,-25,1480,3428,-1747,8506,202,184,-2
1324,0,2022-09-30T20:10:17.765376,1382001,1097,-25,1480,3428,-1747,8506,202,184,-2
1325,0,2022-09-30T20:10:17.772405,1382009,1097,-25,1480,3428,-1747,8506,202,184,-2
1326,0,2022-09-30T20:10:17.778211,1382014,1095,-29,1460,3433,-1855,8657,202,184,-2
1327,0,2022-09-30T20:10:17.784958,1382022,1095,-29,1460,3433,-1855,8657,202,184,-2
1328,0,2022-09-30T20:10:17.791697,1382028,1095,-29,1460,3433,-1855,8657,202,184,-2
1329,0,2022-09-30T20:10:17.796905,1382034,1095,-29,1460,3433,-1855,8657,202,184,-2
1330,0,2022-09-30T20:10:17.802675,1382039,1081,-26,1450,3487,-1881,8748,202,184,-2
1331,0,2022-09-30T20:10:17.807827,1382044,1081,-26,1450,3487,-1881,8748,202,184,-2
1332,0,2022-09-30T20:10:17.813455,1382050,1081,-26,1450,3487,-1881,8748,202,184,-2
1333,0,2022-09-30T20:10:17.819025,1382055,1090,-24,1449,3526,-1852,8728,202,184,-2
1334,0,2022-09-30T20:10:17.825770,1382063,1090,-24,1449,3526,-1852,8728,202,184,-2
1335,0,2022-09-30T20:10:17.832967,1382070,1090,-24,1449,3526,-1852,8728,202,184,-2
1336,0,2022-09-30T20:10:17.838406,1382075,1097,-20,1463,3514,-1906,8693,202,184,-2
1337,0,2022-09-30T20:10:17.845450,1382081,1097,-20,1463,3514,-1906,8693,202,184,-2
1338,0,2022-09-30T20:10:17.858217,1382093,1097,-20,1463,3514,-1906,8693,202,184,-2
1339,0,2022-09-30T20:10:17.865388,1382102,1090,-30,1435,3516,-2000,8778,202,184,-2
1340,0,2022-09-30T20:10:17.873967,1382111,1090,-30,1435,3516,-2000,8778,202,184,-2
1341,0,2022-09-30T20:10:17.882986,1382120,1083,-22,1429,3680,-1927,8977,186,176,-4
1342,0,2022-09-30T20:10:17.893308,1382129,1083,-22,1429,3680,-1927,8977,186,176,-4
1343,0,2022-09-30T20:10:17.901061,1382136,1092,-6,1434,3732,-1887,8936,186,176,-4
1344,0,2022-09-30T20:10:17.913015,1382149,1092,-6,1434,3732,-1887,8936,186,176,-4
1345,0,2022-09-30T20:10:17.920881,1382158,1080,-9,1431,3654,-1963,8723,186,176,-4
1346,0,2022-09-30T20:10:17.929065,1382164,1080,-9,1431,3654,-1963,8723,186,176,-4
1347,0,2022-09-30T20:10:17.937878,1382174,1080,-9,1431,3654,-1963,8723,186,176,-4
1348,0,2022-09-30T20:10:17.943809,1382180,1090,-16,1429,3793,-1875,8677,186,176,-4
1349,0,2022-09-30T20:10:17.953129,1382189,1090,-16,1429,3793,-1875,8677,186,176,-4
1350,0,2022-09-30T20:10:17.962056,1382198,1095,-8,1460,3905,-1810,8823,186,176,-4
1351,0,2022-09-30T20:10:17.970677,1382207,1095,-8,1460,3905,-1810,8823,186,176,-4
1352,0,2022-09-30T20:10:17.976617,1382213,1095,-8,1460,3905,-1810,8823,186,176,-4
1353,0,2022-09-30T20:10:17.983497,1382219,1104,-25,1448,3834,-1829,9021,186,176,-4
1354,0,2022-09-30T20:10:17.992112,1382228,1104,-25,1448,3834,-1829,9021,186,176,-4
1355,0,2022-09-30T20:10:17.998460,1382235,1104,-25,1448,3834,-1829,9021,186,176,-4
1356,0,2022-09-30T20:10:18.016323,1382252,1100,-42,1432,3877,-1833,9179,186,176,-4
1357,0,2022-09-30T20:10:18.033408,1382269,1080,-43,1438,3913,-1875,9205,173,171,-5
1358,0,2022-09-30T20:10:18.043202,1382280,1061,-34,1423,3880,-1896,9190,173,171,-5
1359,0,2022-09-30T20:10:18.054741,1382291,1061,-34,1423,3880,-1896,9190,173,171,-5
1360,0,2022-09-30T20:10:18.062906,1382299,1070,-35,1432,3893,-1791,9173,173,171,-5
1361,0,2022-09-30T20:10:18.073561,1382309,1070,-35,1432,3893,-1791,9173,173,171,-5
1362,0,2022-09-30T20:10:18.083600,1382320,1093,-45,1440,3949,-1653,9146,173,171,-5
1363,0,2022-09-30T20:10:18.097253,1382333,1093,-45,1440,3949,-1653,9146,173,171,-5
1364,0,2022-09-30T20:10:18.108423,1382345,1101,-58,1451,4010,-1643,9179,173,171,-5
1365,0,2022-09-30T20:10:18.117913,1382353,1101,-58,1451,4010,-1643,9179,173,171,-5
1366,0,2022-09-30T20:10:18.127526,1382364,1095,-60,1444,4036,-1675,9225,173,171,-5
1367,0,2022-09-30T20:10:18.138346,1382375,1095,-60,1444,4036,-1675,9225,173,171,-5
1368,0,2022-09-30T20:10:18.151878,1382384,1100,-53,1433,4028,-1728,9183,152,162,-4
1369,0,2022-09-30T20:10:18.163593,1382400,1083,-54,1429,4031,-1754,9123,152,162,-4
1370,0,2022-09-30T20:10:18.179249,1382412,1083,-54,1429,4031,-1754,9123,152,162,-4
1371,0,2022-09-30T20:10:18.187423,1382424,1084,-54,1435,4045,-1731,9063,152,162,-4
1372,0,2022-09-30T20:10:18.200132,1382435,1090,-55,1448,4057,-1702,9031,152,162,-4
1373,0,2022-09-30T20:10:18.211674,1382448,1090,-55,1448,4057,-1702,9031,152,162,-4
1374,0,2022-09-30T20:10:18.220941,1382458,1101,-56,1444,4083,-1698,9041,152,162,-4
1375,0,2022-09-30T20:10:18.234788,1382470,1101,-56,1444,4083,-1698,9041,152,162,-4
1376,0,2022-09-30T20:10:18.247065,1382483,1103,-49,1434,4109,-1690,9088,152,162,-4
1377,0,2022-09-30T20:10:18.261728,1382498,1094,-44,1441,4094,-1692,9120,131,159,-13
1378,0,2022-09-30T20:10:18.281757,1382517,1086,-38,1436,4059,-1689,9078,131,159,-13
1379,0,2022-09-30T20:10:18.292063,1382529,1086,-38,1436,4059,-1689,9078,131,159,-13
1380,0,2022-09-30T20:10:18.299671,1382534,1086,-38,1436,4059,-1689,9078,131,159,-13
1381,0,2022-09-30T20:10:18.308754,1382545,1083,-39,1438,4025,-1691,9011,131,159,-13
1382,0,2022-09-30T20:10:18.319641,1382555,1090,-44,1438,4034,-1651,8970,131,159,-13
1383,0,2022-09-30T20:10:18.336201,1382573,1090,-44,1438,4034,-1651,8970,131,159,-13
1384,0,2022-09-30T20:10:18.347227,1382584,1092,-49,1437,4052,-1612,8908,131,159,-13
1385,0,2022-09-30T20:10:18.365357,1382601,1089,-45,1440,4036,-1622,8815,131,159,-13
1386,0,2022-09-30T20:10:18.377152,1382612,1089,-45,1440,4036,-1622,8815,131,159,-13
1387,0,2022-09-30T20:10:18.386181,1382623,1084,-43,1434,3964,-1661,8727,131,159,-13
1388,0,2022-09-30T20:10:18.395014,1382632,1084,-43,1434,3964,-1661,8727,131,159,-13
1389,0,2022-09-30T20:10:18.408918,1382644,1084,-43,1434,3964,-1661,8727,109,133,-17
1390,0,2022-09-30T20:10:18.415463,1382651,1084,-43,1434,3964,-1661,8727,109,133,-17
1391,0,2022-09-30T20:10:18.423135,1382660,1089,-42,1444,3869,-1615,8555,109,133,-17
1392,0,2022-09-30T20:10:18.434956,1382671,1089,-42,1444,3869,-1615,8555,109,133,-17
1393,0,2022-09-30T20:10:18.441863,1382678,1092,-46,1448,3872,-1597,8530,109,133,-17
1394,0,2022-09-30T20:10:18.454172,1382687,1092,-46,1448,3872,-1597,8530,109,133,-17
1395,0,2022-09-30T20:10:18.465491,1382702,1092,-52,1449,3842,-1613,8490,109,133,-17
1396,0,2022-09-30T20:10:18.482848,1382719,1086,-54,1437,3769,-1607,8446,109,133,-17
1397,0,2022-09-30T20:10:18.494836,1382730,1086,-54,1437,3769,-1607,8446,109,133,-17
1398,0,2022-09-30T20:10:18.505984,1382742,1083,-56,1440,3699,-1583,8369,109,133,-17
1399,0,2022-09-30T20:10:18.517876,1382754,1083,-56,1440,3699,-1583,8369,109,133,-17
1400,0,2022-09-30T20:10:18.527535,1382764,1088,-52,1437,3640,-1553,8277,98,122,-28
1401,0,2022-09-30T20:10:18.537730,1382774,1088,-52,1437,3640,-1553,8277,98,122,-28
1402,0,2022-09-30T20:10:18.546838,1382784,1091,-54,1448,3580,-1533,8185,98,122,-28
1403,0,2022-09-30T20:10:18.560533,1382797,1089,-63,1446,3513,-1505,8087,98,122,-28
1404,0,2022-09-30T20:10:18.570958,1382807,1089,-63,1446,3513,-1505,8087,98,122,-28
1405,0,2022-09-30T20:10:18.582833,1382819,1092,-71,1442,3449,-1470,7985,98,122,-28
1406,0,2022-09-30T20:10:18.594038,1382831,1092,-71,1442,3449,-1470,7985,98,122,-28
1407,0,2022-09-30T20:10:18.603909,1382838,1093,-66,1442,3367,-1483,7866,98,122,-28
1408,0,2022-09-30T20:10:18.612057,1382848,1093,-66,1442,3367,-1483,7866,98,122,-28
1409,0,2022-09-30T20:10:18.621640,1382858,1093,-73,1445,3276,-1492,7711,98,122,-28
1410,0,2022-09-30T20:10:18.641122,1382877,1091,-77,1442,3210,-1509,7584,98,122,-28
1411,0,2022-09-30T20:10:18.653831,1382889,1091,-77,1442,3210,-1509,7584,98,122,-28
1412,0,2022-09-30T20:10:18.663806,1382900,1091,-77,1442,3210,-1509,7584,91,111,-33
1413,0,2022-09-30T20:10:18.675532,1382910,1091,-77,1442,3210,-1509,7584,91,111,-33
1414,0,2022-09-30T20:10:18.684046,1382921,1085,-76,1438,3095,-1455,7440,91,111,-33
1415,0,2022-09-30T20:10:18.694611,1382931,1085,-76,1438,3095,-1455,7440,91,111,-33
1416,0,2022-09-30T20:10:18.706498,1382942,1082,-73,1429,3014,-1385,7195,91,111,-33
1417,0,2022-09-30T20:10:18.719254,1382956,1082,-73,1429,3014,-1385,7195,91,111,-33
1418,0,2022-09-30T20:10:18.728837,1382966,1101,-75,1425,2934,-1341,6924,91,111,-33
1419,0,2022-09-30T20:10:18.739496,1382976,1101,-75,1425,2934,-1341,6924,91,111,-33
1420,0,2022-09-30T20:10:18.749926,1382985,1096,-78,1439,2851,-1355,6843,91,111,-33
1421,0,2022-09-30T20:10:18.761915,1382999,1087,-83,1434,2813,-1330,6845,91,111,-33
1422,0,2022-09-30T20:10:18.775252,1383009,1087,-83,1434,2813,-1330,6845,91,111,-33
1423,0,2022-09-30T20:10:18.787520,1383023,1100,-71,1422,2815,-1207,6662,82,98,-36
1424,0,2022-09-30T20:10:18.797472,1383034,1100,-71,1422,2815,-1207,6662,82,98,-36
1425,0,2022-09-30T20:10:18.806607,1383043,1104,-56,1418,2745,-1167,6268,82,98,-36
1426,0,2022-09-30T20:10:18.817152,1383053,1104,-56,1418,2745,-1167,6268,82,98,-36
1427,0,2022-09-30T20:10:18.829601,1383066,1097,-60,1435,2608,-1207,5918,82,98,-36
1428,0,2022-09-30T20:10:18.838668,1383075,1097,-60,1435,2608,-1207,5918,82,98,-36
1429,0,2022-09-30T20:10:18.845319,1383081,1092,-65,1445,2525,-1186,5819,82,98,-36
1430,0,2022-09-30T20:10:18.857687,1383095,1092,-65,1445,2525,-1186,5819,82,98,-36
1431,0,2022-09-30T20:10:18.866053,1383100,1110,-72,1443,2524,-1124,5887,82,98,-36
1432,0,2022-09-30T20:10:18.876398,1383112,1110,-72,1443,2524,-1124,5887,82,98,-36
1433,0,2022-09-30T20:10:18.882314,1383118,1105,-83,1434,2472,-1101,5897,82,98,-36
1434,0,2022-09-30T20:10:18.890934,1383128,1105,-83,1434,2472,-1101,5897,82,98,-36
1435,0,2022-09-30T20:10:18.896794,1383134,1105,-83,1434,2472,-1101,5897,82,98,-36
1436,0,2022-09-30T20:10:18.904177,1383139,1095,-86,1433,2303,-1134,5699,85,87,-39
1437,0,2022-09-30T20:10:18.914680,1383151,1095,-86,1433,2303,-1134,5699,85,87,-39
1438,0,2022-09-30T20:10:18.921719,1383158,1085,-78,1430,2095,-1132,5405,85,87,-39
1439,0,2022-09-30T20:10:18.926891,1383163,1085,-78,1430,2095,-1132,5405,85,87,-39
1440,0,2022-09-30T20:10:18.934728,1383171,1085,-78,1430,2095,-1132,5405,85,87,-39
1441,0,2022-09-30T20:10:18.939755,1383177,1088,-69,1433,1971,-1092,5146,85,87,-39
1442,0,2022-09-30T20:10:18.945971,1383183,1088,-69,1433,1971,-1092,5146,85,87,-39
1443,0,2022-09-30T20:10:18.952069,1383189,1088,-69,1433,1971,-1092,5146,85,87,-39
1444,0,2022-09-30T20:10:18.957481,1383194,1088,-69,1433,1971,-1092,5146,85,87,-39
1445,0,2022-09-30T20:10:18.964182,1383199,1104,-71,1442,1913,-1016,4926,85,87,-39
1446,0,2022-09-30T20:10:18.975378,1383212,1104,-71,1442,1913,-1016,4926,85,87,-39
1447,0,2022-09-30T20:10:18.985243,1383221,1107,-85,1442,1859,-985,4793,85,87,-39
1448,0,2022-09-30T20:10:18.994899,1383231,1107,-85,1442,1859,-985,4793,85,87,-39
1449,0,2022-09-30T20:10:19.004541,1383237,1102,-87,1441,1791,-1006,4716,85,87,-39
1450,0,2022-09-30T20:10:19.014375,1383250,1102,-87,1441,1791,-1006,4716,85,87,-39
1451,0,2022-09-30T20:10:19.021025,1383258,1099,-85,1436,1642,-1075,4510,85,87,-39
1452,0,2022-09-30T20:10:19.029496,1383264,1099,-85,1436,1642,-1075,4510,85,87,-39
1453,0,2022-09-30T20:10:19.041869,1383278,1091,-80,1427,1501,-1079,4184,75,75,-45
1454,0,2022-09-30T20:10:19.049243,1383285,1091,-80,1427,1501,-1079,4184,75,75,-45
1455,0,2022-09-30T20:10:19.060753,1383298,1086,-72,1429,1367,-1007,3871,75,75,-45
1456,0,2022-09-30T20:10:19.069549,1383307,1086,-72,1429,1367,-1007,3871,75,75,-45
1457,0,2022-09-30T20:10:19.075242,1383312,1086,-72,1429,1367,-1007,3871,75,75,-45
1458,0,2022-09-30T20:10:19.083051,1383318,1093,-73,1434,1231,-924,3676,75,75,-45
1459,0,2022-09-30T20:10:19.090271,1383327,1093,-73,1434,1231,-924,3676,75,75,-45
1460,0,2022-09-30T20:10:19.100856,1383336,1093,-73,1434,1231,-924,3676,75,75,-45
1461,0,2022-09-30T20:10:19.111566,1383348,1093,-73,1434,1231,-924,3676,75,75,-45
1462,0,2022-09-30T20:10:19.120284,1383357,1105,-93,1446,1079,-855,3397,75,75,-45
1463,0,2022-09-30T20:10:19.130900,1383367,1105,-93,1446,1079,-855,3397,75,75,-45
1464,0,2022-09-30T20:10:19.140717,1383377,1105,-93,1440,959,-845,3216,75,75,-45
1465,0,2022-09-30T20:10:19.153091,1383389,1105,-93,1440,959,-845,3216,75,75,-45
1466,0,2022-09-30T20:10:19.160431,1383397,1103,-82,1426,807,-836,2972,70,72,-42
1467,0,2022-09-30T20:10:19.169413,1383406,1103,-82,1426,807,-836,2972,70,72,-42
1468,0,2022-09-30T20:10:19.178831,1383413,1103,-82,1426,807,-836,2972,70,72,-42
1469,0,2022-09-30T20:10:19.186824,1383424,1101,-75,1430,657,-817,2688,70,72,-42
1470,0,2022-09-30T20:10:19.201385,1383438,1108,-80,1428,516,-766,2414,70,72,-42
1471,0,2022-09-30T20:10:19.207176,1383444,1108,-80,1428,516,-766,2414,70,72,-42
1472,0,2022-09-30T20:10:19.214828,1383451,1108,-80,1428,516,-766,2414,70,72,-42
1473,0,2022-09-30T20:10:19.220587,1383457,1107,-78,1435,413,-740,2178,70,72,-42
1474,0,2022-09-30T20:10:19.227708,1383464,1107,-78,1435,413,-740,2178,70,72,-42
1475,0,2022-09-30T20:10:19.237592,1383474,1107,-78,1435,413,-740,2178,70,72,-42
1476,0,2022-09-30T20:10:19.247031,1383484,1108,-76,1440,341,-713,1969,70,72,-42
1477,0,2022-09-30T20:10:19.258921,1383495,1108,-76,1440,341,-713,1969,70,72,-42
