,imu,server_time,arduino_time,ax,ay,az,gx,gy,gz,mx,my,mz
0,2,2022-09-30T19:56:36.396510,560562,-5432,259,48,-197,-196,-75,94,448,-164
1,2,2022-09-30T19:56:36.411361,560577,-5438,255,53,-182,-211,-88,94,448,-164
2,2,2022-09-30T19:56:36.420185,560586,-5438,255,53,-182,-211,-88,94,448,-164
3,2,2022-09-30T19:56:36.426068,560592,-5438,255,53,-182,-211,-88,94,448,-164
4,2,2022-09-30T19:56:36.432414,560599,-5433,256,48,-152,-252,-92,94,448,-164
5,2,2022-09-30T19:56:36.438642,560605,-5433,256,48,-152,-252,-92,94,448,-164
6,2,2022-09-30T19:56:36.444938,560611,-5433,256,48,-152,-252,-92,94,448,-164
7,2,2022-09-30T19:56:36.450948,560617,-5427,258,52,-111,-279,-111,94,448,-164
8,2,2022-09-30T19:56:36.457000,560623,-5427,258,52,-111,-279,-111,94,448,-164
9,2,2022-09-30T19:56:36.463494,560629,-5427,258,52,-111,-279,-111,94,448,-164
10,2,2022-09-30T19:56:36.471720,560638,-5423,257,53,-101,-262,-149,94,448,-164
11,2,2022-09-30T19:56:36.477986,560644,-5423,257,53,-101,-262,-149,94,448,-164
12,2,2022-09-30T19:56:36.484478,560651,-5423,257,53,-101,-262,-149,94,448,-164
13,2,2022-09-30T19:56:36.493925,560658,-5425,256,54,-129,-246,-194,94,448,-164
14,2,2022-09-30T19:56:36.500530,560666,-5425,256,54,-129,-246,-194,94,448,-164
15,2,2022-09-30T19:56:36.507735,560674,-5425,256,54,-129,-246,-194,94,448,-164
16,2,2022-09-30T19:56:36.514963,560681,-5422,258,55,-155,-251,-214,94,438,-172
17,2,2022-09-30T19:56:36.522036,560688,-5422,258,55,-155,-251,-214,94,438,-172
18,2,2022-09-30T19:56:36.531323,560697,-5422,258,55,-155,-251,-214,94,438,-172
19,2,2022-09-30T19:56:36.537414,560704,-5426,260,58,-172,-242,-191,94,438,-172
20,2,2022-09-30T19:56:36.543452,560710,-5426,260,58,-172,-242,-191,94,438,-172
21,2,2022-09-30T19:56:36.551419,560718,-5422,260,58,-208,-240,-131,94,438,-172
22,2,2022-09-30T19:56:36.557461,560724,-5422,260,58,-208,-240,-131,94,438,-172
23,2,2022-09-30T19:56:36.563478,560730,-5422,260,58,-208,-240,-131,94,438,-172
24,2,2022-09-30T19:56:36.569568,560736,-5422,260,58,-208,-240,-131,94,438,-172
25,2,2022-09-30T19:56:36.576491,560743,-5420,259,59,-225,-238,-70,94,438,-172
26,2,2022-09-30T19:56:36.585798,560752,-5420,259,59,-225,-238,-70,94,438,-172
27,2,2022-09-30T19:56:36.593277,560759,-5415,261,53,-256,-217,-19,94,438,-172
28,2,2022-09-30T19:56:36.599597,560766,-5415,261,53,-256,-217,-19,94,438,-172
29,2,2022-09-30T19:56:36.606770,560773,-5415,261,53,-256,-217,-19,94,438,-172
30,2,2022-09-30T19:56:36.614162,560781,-5418,257,54,-283,-192,13,94,438,-172
31,2,2022-09-30T19:56:36.619674,560786,-5418,257,54,-283,-192,13,94,438,-172
32,2,2022-09-30T19:56:36.626628,560793,-5418,257,54,-283,-192,13,94,438,-172
33,2,2022-09-30T19:56:36.634644,560801,-5420,260,55,-292,-156,20,90,442,-166
34,2,2022-09-30T19:56:36.651301,560807,-5420,260,55,-292,-156,20,90,442,-166
35,2,2022-09-30T19:56:36.661948,560828,-5427,258,52,-294,-124,18,90,442,-166
36,2,2022-09-30T19:56:36.671102,560838,-5434,260,50,-282,-104,17,90,442,-166
37,2,2022-09-30T19:56:36.678934,560844,-5434,260,50,-282,-104,17,90,442,-166
38,2,2022-09-30T19:56:36.686959,560852,-5434,260,50,-282,-104,17,90,442,-166
39,2,2022-09-30T19:56:36.695189,560861,-5434,265,43,-259,-100,31,90,442,-166
40,2,2022-09-30T19:56:36.702450,560868,-5434,265,43,-259,-100,31,90,442,-166
41,2,2022-09-30T19:56:36.711513,560878,-5435,264,51,-259,-120,35,90,442,-166
42,2,2022-09-30T19:56:36.718179,560884,-5435,264,51,-259,-120,35,90,442,-166
43,2,2022-09-30T19:56:36.726655,560892,-5435,264,51,-259,-120,35,90,442,-166
44,2,2022-09-30T19:56:36.736072,560902,-5438,265,43,-275,-154,5,90,442,-166
45,2,2022-09-30T19:56:36.743694,560909,-5438,265,43,-275,-154,5,90,442,-166
46,2,2022-09-30T19:56:36.752335,560918,-5436,263,43,-294,-189,-43,90,442,-166
47,2,2022-09-30T19:56:36.758815,560925,-5436,263,43,-294,-189,-43,90,442,-166
48,2,2022-09-30T19:56:36.766309,560933,-5436,263,43,-294,-189,-43,90,442,-166
49,2,2022-09-30T19:56:36.775794,560941,-5428,262,47,-309,-221,-79,92,442,-166
50,2,2022-09-30T19:56:36.781705,560949,-5428,262,47,-309,-221,-79,92,442,-166
51,2,2022-09-30T19:56:36.791705,560958,-5431,260,51,-305,-225,-101,92,442,-166
52,2,2022-09-30T19:56:36.797825,560964,-5431,260,51,-305,-225,-101,92,442,-166
53,2,2022-09-30T19:56:36.805151,560971,-5431,260,51,-305,-225,-101,92,442,-166
54,2,2022-09-30T19:56:36.811105,560977,-5428,260,47,-285,-229,-94,92,442,-166
55,2,2022-09-30T19:56:36.818126,560984,-5428,260,47,-285,-229,-94,92,442,-166
56,2,2022-09-30T19:56:36.826138,560993,-5428,260,47,-285,-229,-94,92,442,-166
57,2,2022-09-30T19:56:36.835135,561001,-5435,259,48,-245,-230,-58,92,442,-166
58,2,2022-09-30T19:56:36.841161,561008,-5435,259,48,-245,-230,-58,92,442,-166
59,2,2022-09-30T19:56:36.849950,561016,-5435,259,48,-245,-230,-58,92,442,-166
60,2,2022-09-30T19:56:36.856011,561022,-5433,257,45,-210,-241,-38,92,442,-166
61,2,2022-09-30T19:56:36.863637,561030,-5433,257,45,-210,-241,-38,92,442,-166
62,2,2022-09-30T19:56:36.869881,561037,-5433,257,45,-210,-241,-38,92,442,-166
63,2,2022-09-30T19:56:36.875747,561042,-5432,261,49,-206,-255,-56,92,442,-166
64,2,2022-09-30T19:56:36.881778,561048,-5432,261,49,-206,-255,-56,92,442,-166
65,2,2022-09-30T19:56:36.889622,561056,-5432,261,49,-206,-255,-56,92,442,-166
66,2,2022-09-30T19:56:36.894955,561061,-5428,264,55,-211,-277,-81,81,443,-165
67,2,2022-09-30T19:56:36.900805,561068,-5428,264,55,-211,-277,-81,81,443,-165
68,2,2022-09-30T19:56:36.907135,561074,-5428,264,55,-211,-277,-81,81,443,-165
69,2,2022-09-30T19:56:36.912647,561080,-5429,263,56,-215,-279,-124,81,443,-165
70,2,2022-09-30T19:56:36.919198,561085,-5429,263,56,-215,-279,-124,81,443,-165
71,2,2022-09-30T19:56:36.927332,561093,-5429,263,56,-215,-279,-124,81,443,-165
72,2,2022-09-30T19:56:36.938320,561104,-5420,262,54,-233,-266,-158,81,443,-165
73,2,2022-09-30T19:56:36.950159,561117,-5420,262,54,-233,-266,-158,81,443,-165
74,2,2022-09-30T19:56:36.959887,561126,-5420,259,52,-247,-208,-165,81,443,-165
75,2,2022-09-30T19:56:36.970328,561137,-5420,259,52,-247,-208,-165,81,443,-165
76,2,2022-09-30T19:56:36.979780,561146,-5437,261,51,-265,-158,-162,81,443,-165
77,2,2022-09-30T19:56:36.987390,561154,-5437,261,51,-265,-158,-162,81,443,-165
78,2,2022-09-30T19:56:36.996577,561163,-5436,255,52,-272,-181,-125,81,443,-165
79,2,2022-09-30T19:56:37.007091,561173,-5436,255,52,-272,-181,-125,81,443,-165
80,2,2022-09-30T19:56:37.015922,561182,-5424,255,54,-236,-248,-92,90,446,-166
81,2,2022-09-30T19:56:37.023633,561189,-5424,255,54,-236,-248,-92,90,446,-166
82,2,2022-09-30T19:56:37.033139,561200,-5418,257,58,-206,-244,-108,90,446,-166
83,2,2022-09-30T19:56:37.040150,561206,-5418,257,58,-206,-244,-108,90,446,-166
84,2,2022-09-30T19:56:37.046720,561213,-5418,257,58,-206,-244,-108,90,446,-166
85,2,2022-09-30T19:56:37.053842,561220,-5423,260,55,-194,-186,-126,90,446,-166
86,2,2022-09-30T19:56:37.060654,561227,-5423,260,55,-194,-186,-126,90,446,-166
87,2,2022-09-30T19:56:37.068916,561233,-5423,260,55,-194,-186,-126,90,446,-166
88,2,2022-09-30T19:56:37.075500,561243,-5434,258,49,-174,-131,-130,90,446,-166
89,2,2022-09-30T19:56:37.081441,561248,-5434,258,49,-174,-131,-130,90,446,-166
90,2,2022-09-30T19:56:37.088847,561256,-5434,258,49,-174,-131,-130,90,446,-166
91,2,2022-09-30T19:56:37.095369,561261,-5439,258,49,-134,-144,-126,90,446,-166
92,2,2022-09-30T19:56:37.101984,561268,-5439,258,49,-134,-144,-126,90,446,-166
93,2,2022-09-30T19:56:37.111133,561277,-5432,257,48,-102,-210,-145,90,446,-166
94,2,2022-09-30T19:56:37.117246,561284,-5432,257,48,-102,-210,-145,90,446,-166
95,2,2022-09-30T19:56:37.123010,561290,-5432,257,48,-102,-210,-145,90,446,-166
96,2,2022-09-30T19:56:37.129510,561296,-5432,257,48,-102,-210,-145,90,446,-166
97,2,2022-09-30T19:56:37.134694,561302,-5428,258,57,-103,-258,-215,97,439,-173
98,2,2022-09-30T19:56:37.140070,561307,-5428,258,57,-103,-258,-215,97,439,-173
99,2,2022-09-30T19:56:37.147349,561314,-5428,258,57,-103,-258,-215,97,439,-173
100,2,2022-09-30T19:56:37.154999,561321,-5431,256,55,-135,-266,-290,97,439,-173
101,2,2022-09-30T19:56:37.160320,561328,-5431,256,55,-135,-266,-290,97,439,-173
102,2,2022-09-30T19:56:37.166650,561334,-5431,256,55,-135,-266,-290,97,439,-173
103,2,2022-09-30T19:56:37.173017,561340,-5427,251,54,-167,-280,-340,97,439,-173
104,2,2022-09-30T19:56:37.179306,561346,-5427,251,54,-167,-280,-340,97,439,-173
105,2,2022-09-30T19:56:37.185931,561352,-5427,251,54,-167,-280,-340,97,439,-173
106,2,2022-09-30T19:56:37.193585,561360,-5415,253,54,-188,-284,-323,97,439,-173
107,2,2022-09-30T19:56:37.202766,561369,-5415,253,54,-188,-284,-323,97,439,-173
108,2,2022-09-30T19:56:37.213158,561380,-5415,250,56,-198,-243,-272,97,439,-173
109,2,2022-09-30T19:56:37.218798,561386,-5415,250,56,-198,-243,-272,97,439,-173
110,2,2022-09-30T19:56:37.225671,561392,-5415,250,56,-198,-243,-272,97,439,-173
111,2,2022-09-30T19:56:37.231149,561398,-5417,247,49,-241,-175,-235,97,439,-173
112,2,2022-09-30T19:56:37.236957,561403,-5417,247,49,-241,-175,-235,97,439,-173
113,2,2022-09-30T19:56:37.243314,561410,-5417,247,49,-241,-175,-235,97,439,-173
114,2,2022-09-30T19:56:37.250853,561418,-5417,247,49,-241,-175,-235,97,439,-173
115,2,2022-09-30T19:56:37.256796,561423,-5428,242,58,-291,-121,-207,87,445,-161
116,2,2022-09-30T19:56:37.262883,561430,-5428,242,58,-291,-121,-207,87,445,-161
117,2,2022-09-30T19:56:37.270623,561437,-5428,242,58,-291,-121,-207,87,445,-161
118,2,2022-09-30T19:56:37.275829,561443,-5429,237,57,-294,-138,-167,87,445,-161
119,2,2022-09-30T19:56:37.281608,561448,-5429,237,57,-294,-138,-167,87,445,-161
120,2,2022-09-30T19:56:37.287382,561454,-5429,237,57,-294,-138,-167,87,445,-161
121,2,2022-09-30T19:56:37.293009,561460,-5423,240,47,-262,-147,-121,87,445,-161
122,2,2022-09-30T19:56:37.299740,561466,-5423,240,47,-262,-147,-121,87,445,-161
123,2,2022-09-30T19:56:37.306072,561472,-5423,240,47,-262,-147,-121,87,445,-161
124,2,2022-09-30T19:56:37.312264,561479,-5423,240,43,-220,-129,-97,87,445,-161
125,2,2022-09-30T19:56:37.318152,561484,-5423,240,43,-220,-129,-97,87,445,-161
126,2,2022-09-30T19:56:37.325430,561492,-5423,240,43,-220,-129,-97,87,445,-161
127,2,2022-09-30T19:56:37.333276,561500,-5429,238,45,-190,-112,-94,87,445,-161
128,2,2022-09-30T19:56:37.339244,561506,-5429,238,45,-190,-112,-94,87,445,-161
129,2,2022-09-30T19:56:37.345243,561512,-5429,238,45,-190,-112,-94,87,445,-161
130,2,2022-09-30T19:56:37.353277,561520,-5433,239,37,-135,-137,-98,87,445,-161
131,2,2022-09-30T19:56:37.359591,561526,-5433,239,37,-135,-137,-98,87,445,-161
132,2,2022-09-30T19:56:37.365178,561531,-5433,239,37,-135,-137,-98,87,445,-161
133,2,2022-09-30T19:56:37.371549,561538,-5436,241,43,-99,-179,-91,87,445,-161
134,2,2022-09-30T19:56:37.378410,561545,-5436,241,43,-99,-179,-91,87,445,-161
135,2,2022-09-30T19:56:37.385087,561552,-5436,241,43,-99,-179,-91,87,445,-161
136,2,2022-09-30T19:56:37.392353,561559,-5430,242,45,-94,-211,-98,96,444,-164
137,2,2022-09-30T19:56:37.398250,561565,-5430,242,45,-94,-211,-98,96,444,-164
138,2,2022-09-30T19:56:37.406365,561572,-5430,242,45,-94,-211,-98,96,444,-164
139,2,2022-09-30T19:56:37.413413,561581,-5425,246,47,-90,-237,-89,96,444,-164
140,2,2022-09-30T19:56:37.419437,561586,-5425,246,47,-90,-237,-89,96,444,-164
141,2,2022-09-30T19:56:37.425733,561592,-5425,246,47,-90,-237,-89,96,444,-164
142,2,2022-09-30T19:56:37.432390,561598,-5424,245,45,-66,-246,-87,96,444,-164
143,2,2022-09-30T19:56:37.438221,561605,-5424,245,45,-66,-246,-87,96,444,-164
144,2,2022-09-30T19:56:37.443865,561610,-5424,245,45,-66,-246,-87,96,444,-164
145,2,2022-09-30T19:56:37.451192,561618,-5426,246,48,-33,-228,-59,96,444,-164
146,2,2022-09-30T19:56:37.456936,561624,-5426,246,48,-33,-228,-59,96,444,-164
147,2,2022-09-30T19:56:37.463300,561630,-5426,246,48,-33,-228,-59,96,444,-164
148,2,2022-09-30T19:56:37.471077,561638,-5422,251,44,6,-248,-42,96,444,-164
149,2,2022-09-30T19:56:37.477106,561644,-5422,251,44,6,-248,-42,96,444,-164
150,2,2022-09-30T19:56:37.482373,561649,-5422,251,44,6,-248,-42,96,444,-164
151,2,2022-09-30T19:56:37.489415,561656,-5422,251,44,6,-248,-42,96,444,-164
152,2,2022-09-30T19:56:37.496413,561662,-5419,252,54,28,-217,-42,96,444,-164
153,2,2022-09-30T19:56:37.501954,561669,-5419,252,54,28,-217,-42,96,444,-164
154,2,2022-09-30T19:56:37.507807,561675,-5419,252,54,28,-217,-42,96,444,-164
155,2,2022-09-30T19:56:37.513048,561680,-5421,260,50,30,-162,-37,93,445,-171
156,2,2022-09-30T19:56:37.519236,561686,-5421,260,50,30,-162,-37,93,445,-171
157,2,2022-09-30T19:56:37.525349,561692,-5421,260,50,30,-162,-37,93,445,-171
158,2,2022-09-30T19:56:37.532371,561699,-5438,265,52,4,-128,-36,93,445,-171
159,2,2022-09-30T19:56:37.538562,561705,-5438,265,52,4,-128,-36,93,445,-171
160,2,2022-09-30T19:56:37.549207,561712,-5438,265,52,4,-128,-36,93,445,-171
161,2,2022-09-30T19:56:37.557219,561724,-5443,262,56,-33,-158,-52,93,445,-171
162,2,2022-09-30T19:56:37.563600,561730,-5443,262,56,-33,-158,-52,93,445,-171
163,2,2022-09-30T19:56:37.572204,561738,-5435,259,52,-76,-233,-95,93,445,-171
164,2,2022-09-30T19:56:37.578662,561745,-5435,259,52,-76,-233,-95,93,445,-171
165,2,2022-09-30T19:56:37.585149,561752,-5435,259,52,-76,-233,-95,93,445,-171
166,2,2022-09-30T19:56:37.593244,561760,-5426,261,54,-133,-297,-158,93,445,-171
167,2,2022-09-30T19:56:37.598555,561766,-5426,261,54,-133,-297,-158,93,445,-171
168,2,2022-09-30T19:56:37.605651,561772,-5426,261,54,-133,-297,-158,93,445,-171
169,2,2022-09-30T19:56:37.613653,561780,-5423,258,51,-194,-291,-224,93,445,-171
170,2,2022-09-30T19:56:37.619224,561786,-5423,258,51,-194,-291,-224,93,445,-171
171,2,2022-09-30T19:56:37.626652,561794,-5423,258,51,-194,-291,-224,93,445,-171
172,2,2022-09-30T19:56:37.635090,561802,-5420,253,49,-237,-257,-260,93,445,-169
173,2,2022-09-30T19:56:37.640669,561808,-5420,253,49,-237,-257,-260,93,445,-169
174,2,2022-09-30T19:56:37.646609,561813,-5420,253,49,-237,-257,-260,93,445,-169
175,2,2022-09-30T19:56:37.652376,561819,-5423,243,57,-241,-213,-253,93,445,-169
176,2,2022-09-30T19:56:37.658184,561825,-5423,243,57,-241,-213,-253,93,445,-169
177,2,2022-09-30T19:56:37.664094,561831,-5423,243,57,-241,-213,-253,93,445,-169
178,2,2022-09-30T19:56:37.671643,561839,-5424,238,53,-219,-195,-218,93,445,-169
179,2,2022-09-30T19:56:37.678236,561845,-5424,238,53,-219,-195,-218,93,445,-169
180,2,2022-09-30T19:56:37.683684,561851,-5424,238,53,-219,-195,-218,93,445,-169
181,2,2022-09-30T19:56:37.690756,561858,-5424,238,53,-219,-195,-218,93,445,-169
182,2,2022-09-30T19:56:37.695650,561863,-5427,236,51,-182,-181,-200,93,445,-169
183,2,2022-09-30T19:56:37.701238,561868,-5427,236,51,-182,-181,-200,93,445,-169
184,2,2022-09-30T19:56:37.707314,561874,-5427,236,51,-182,-181,-200,93,445,-169
185,2,2022-09-30T19:56:37.715588,561882,-5421,241,46,-144,-179,-189,93,445,-169
186,2,2022-09-30T19:56:37.720920,561888,-5421,241,46,-144,-179,-189,93,445,-169
187,2,2022-09-30T19:56:37.727573,561895,-5421,241,46,-144,-179,-189,93,445,-169
188,2,2022-09-30T19:56:37.735576,561903,-5417,240,40,-150,-149,-178,93,445,-169
189,2,2022-09-30T19:56:37.742711,561909,-5417,240,40,-150,-149,-178,93,445,-169
190,2,2022-09-30T19:56:37.750435,561917,-5417,240,40,-150,-149,-178,93,445,-169
191,2,2022-09-30T19:56:37.756135,561923,-5437,236,42,-172,-73,-165,87,437,-165
192,2,2022-09-30T19:56:37.761746,561929,-5437,236,42,-172,-73,-165,87,437,-165
193,2,2022-09-30T19:56:37.769323,561937,-5437,236,42,-172,-73,-165,87,437,-165
194,2,2022-09-30T19:56:37.774738,561942,-5453,239,54,-187,-71,-133,87,437,-165
195,2,2022-09-30T19:56:37.780726,561947,-5453,239,54,-187,-71,-133,87,437,-165
196,2,2022-09-30T19:56:37.787108,561954,-5453,239,54,-187,-71,-133,87,437,-165
197,2,2022-09-30T19:56:37.793891,561960,-5440,236,37,-161,-191,-61,87,437,-165
198,2,2022-09-30T19:56:37.799284,561967,-5440,236,37,-161,-191,-61,87,437,-165
199,2,2022-09-30T19:56:37.805333,561972,-5440,236,37,-161,-191,-61,87,437,-165
200,2,2022-09-30T19:56:37.810939,561978,-5440,236,37,-161,-191,-61,87,437,-165
201,2,2022-09-30T19:56:37.816001,561983,-5423,240,39,-112,-276,4,87,437,-165
202,2,2022-09-30T19:56:37.821563,561988,-5423,240,39,-112,-276,4,87,437,-165
203,2,2022-09-30T19:56:37.827390,561994,-5423,240,39,-112,-276,4,87,437,-165
204,2,2022-09-30T19:56:37.834782,561999,-5420,245,43,-82,-287,19,87,437,-165
205,2,2022-09-30T19:56:37.840332,562008,-5420,245,43,-82,-287,19,87,437,-165
206,2,2022-09-30T19:56:37.845663,562013,-5420,245,43,-82,-287,19,87,437,-165
207,2,2022-09-30T19:56:37.850658,562018,-5420,245,43,-82,-287,19,87,437,-165
208,2,2022-09-30T19:56:37.856470,562023,-5427,243,46,-66,-258,21,87,437,-165
209,2,2022-09-30T19:56:37.862504,562029,-5427,243,46,-66,-258,21,87,437,-165
210,2,2022-09-30T19:56:37.868205,562035,-5427,243,46,-66,-258,21,87,437,-165
211,2,2022-09-30T19:56:37.874309,562041,-5427,249,49,-42,-227,19,99,445,-163
212,2,2022-09-30T19:56:37.880072,562046,-5427,249,49,-42,-227,19,99,445,-163
213,2,2022-09-30T19:56:37.886111,562053,-5427,249,49,-42,-227,19,99,445,-163
214,2,2022-09-30T19:56:37.894314,562061,-5429,256,45,-37,-190,22,99,445,-163
215,2,2022-09-30T19:56:37.899736,562067,-5429,256,45,-37,-190,22,99,445,-163
216,2,2022-09-30T19:56:37.907524,562074,-5429,256,45,-37,-190,22,99,445,-163
217,2,2022-09-30T19:56:37.915396,562082,-5431,256,47,-64,-205,18,99,445,-163
218,2,2022-09-30T19:56:37.921234,562088,-5431,256,47,-64,-205,18,99,445,-163
219,2,2022-09-30T19:56:37.926938,562094,-5431,256,47,-64,-205,18,99,445,-163
220,2,2022-09-30T19:56:37.935326,562102,-5436,253,51,-96,-238,-10,99,445,-163
221,2,2022-09-30T19:56:37.941185,562108,-5436,253,51,-96,-238,-10,99,445,-163
222,2,2022-09-30T19:56:37.947463,562114,-5436,253,51,-96,-238,-10,99,445,-163
223,2,2022-09-30T19:56:37.954992,562122,-5432,250,46,-120,-257,-46,99,445,-163
224,2,2022-09-30T19:56:37.960197,562127,-5432,250,46,-120,-257,-46,99,445,-163
225,2,2022-09-30T19:56:37.965838,562134,-5432,250,46,-120,-257,-46,99,445,-163
226,2,2022-09-30T19:56:37.974777,562142,-5414,257,49,-119,-279,-58,99,445,-163
227,2,2022-09-30T19:56:37.980451,562147,-5414,257,49,-119,-279,-58,99,445,-163
228,2,2022-09-30T19:56:37.986063,562153,-5414,257,49,-119,-279,-58,99,445,-163
229,2,2022-09-30T19:56:37.993409,562160,-5422,252,54,-109,-261,-53,99,445,-163
230,2,2022-09-30T19:56:37.999073,562166,-5422,252,54,-109,-261,-53,99,445,-163
231,2,2022-09-30T19:56:38.004823,562171,-5422,252,54,-109,-261,-53,99,445,-163
232,2,2022-09-30T19:56:38.010636,562178,-5422,252,54,-109,-261,-53,99,445,-163
233,2,2022-09-30T19:56:38.016712,562184,-5431,258,47,-132,-205,-51,91,447,-161
234,2,2022-09-30T19:56:38.022382,562189,-5431,258,47,-132,-205,-51,91,447,-161
235,2,2022-09-30T19:56:38.030285,562197,-5431,258,47,-132,-205,-51,91,447,-161
236,2,2022-09-30T19:56:38.035875,562203,-5434,252,55,-171,-184,-49,91,447,-161
237,2,2022-09-30T19:56:38.041326,562208,-5434,252,55,-171,-184,-49,91,447,-161
238,2,2022-09-30T19:56:38.046027,562213,-5434,252,55,-171,-184,-49,91,447,-161
239,2,2022-09-30T19:56:38.052524,562220,-5426,258,46,-201,-225,-48,91,447,-161
240,2,2022-09-30T19:56:38.058750,562226,-5426,258,46,-201,-225,-48,91,447,-161
241,2,2022-09-30T19:56:38.064241,562231,-5426,258,46,-201,-225,-48,91,447,-161
242,2,2022-09-30T19:56:38.069997,562237,-5426,258,46,-201,-225,-48,91,447,-161
243,2,2022-09-30T19:56:38.074655,562242,-5422,259,45,-224,-231,-23,91,447,-161
244,2,2022-09-30T19:56:38.080828,562247,-5422,259,45,-224,-231,-23,91,447,-161
245,2,2022-09-30T19:56:38.086950,562253,-5422,259,45,-224,-231,-23,91,447,-161
246,2,2022-09-30T19:56:38.091896,562259,-5428,253,46,-225,-193,-28,91,447,-161
247,2,2022-09-30T19:56:38.097550,562265,-5428,253,46,-225,-193,-28,91,447,-161
248,2,2022-09-30T19:56:38.102689,562270,-5428,253,46,-225,-193,-28,91,447,-161
249,2,2022-09-30T19:56:38.110257,562277,-5428,253,46,-225,-193,-28,91,447,-161
250,2,2022-09-30T19:56:38.115773,562283,-5433,247,45,-215,-180,-52,91,447,-161
251,2,2022-09-30T19:56:38.121072,562288,-5433,247,45,-215,-180,-52,91,447,-161
252,2,2022-09-30T19:56:38.127743,562295,-5433,247,45,-215,-180,-52,91,447,-161
253,2,2022-09-30T19:56:38.135011,562302,-5437,248,53,-194,-193,-80,97,449,-157
254,2,2022-09-30T19:56:38.140253,562308,-5437,248,53,-194,-193,-80,97,449,-157
255,2,2022-09-30T19:56:38.146924,562314,-5437,248,53,-194,-193,-80,97,449,-157
256,2,2022-09-30T19:56:38.152934,562320,-5435,248,47,-164,-219,-130,97,449,-157
257,2,2022-09-30T19:56:38.159277,562326,-5435,248,47,-164,-219,-130,97,449,-157
258,2,2022-09-30T19:56:38.165400,562332,-5435,248,47,-164,-219,-130,97,449,-157
259,2,2022-09-30T19:56:38.173030,562340,-5428,248,47,-140,-245,-179,97,449,-157
260,2,2022-09-30T19:56:38.178811,562345,-5428,248,47,-140,-245,-179,97,449,-157
261,2,2022-09-30T19:56:38.185605,562353,-5428,248,47,-140,-245,-179,97,449,-157
262,2,2022-09-30T19:56:38.191696,562359,-5428,248,47,-140,-245,-179,97,449,-157
263,2,2022-09-30T19:56:38.196659,562364,-5428,248,47,-140,-245,-179,97,449,-157
264,2,2022-09-30T19:56:38.202764,562370,-5428,248,47,-140,-245,-179,97,449,-157
265,2,2022-09-30T19:56:38.207865,562375,-5428,248,47,-140,-245,-179,97,449,-157
266,2,2022-09-30T19:56:38.212884,562380,-5424,247,49,-83,-299,-184,97,449,-157
267,2,2022-09-30T19:56:38.218911,562385,-5424,247,49,-83,-299,-184,97,449,-157
268,2,2022-09-30T19:56:38.224257,562392,-5424,247,49,-83,-299,-184,97,449,-157
269,2,2022-09-30T19:56:38.229827,562397,-5424,247,49,-83,-299,-184,97,449,-157
270,2,2022-09-30T19:56:38.234960,562402,-5425,244,54,-77,-299,-173,97,449,-157
271,2,2022-09-30T19:56:38.240093,562407,-5425,244,54,-77,-299,-173,97,449,-157
272,2,2022-09-30T19:56:38.245431,562413,-5425,244,54,-77,-299,-173,97,449,-157
273,2,2022-09-30T19:56:38.251824,562419,-5421,251,58,-99,-288,-173,89,443,-171
274,2,2022-09-30T19:56:38.257575,562424,-5421,251,58,-99,-288,-173,89,443,-171
275,2,2022-09-30T19:56:38.262702,562430,-5421,251,58,-99,-288,-173,89,443,-171
276,2,2022-09-30T19:56:38.268517,562436,-5421,251,58,-99,-288,-173,89,443,-171
277,2,2022-09-30T19:56:38.273901,562441,-5419,252,54,-142,-279,-159,89,443,-171
278,2,2022-09-30T19:56:38.280554,562447,-5419,252,54,-142,-279,-159,89,443,-171
279,2,2022-09-30T19:56:38.286144,562453,-5419,252,54,-142,-279,-159,89,443,-171
280,2,2022-09-30T19:56:38.291412,562459,-5419,252,54,-142,-279,-159,89,443,-171
281,2,2022-09-30T19:56:38.296504,562464,-5413,255,53,-179,-236,-102,89,443,-171
282,2,2022-09-30T19:56:38.302832,562470,-5413,255,53,-179,-236,-102,89,443,-171
283,2,2022-09-30T19:56:38.310238,562478,-5413,255,53,-179,-236,-102,89,443,-171
284,2,2022-09-30T19:56:38.315514,562483,-5420,257,50,-213,-182,-24,89,443,-171
285,2,2022-09-30T19:56:38.321351,562488,-5420,257,50,-213,-182,-24,89,443,-171
286,2,2022-09-30T19:56:38.327550,562494,-5420,257,50,-213,-182,-24,89,443,-171
287,2,2022-09-30T19:56:38.332813,562500,-5431,249,50,-243,-129,24,89,443,-171
288,2,2022-09-30T19:56:38.337963,562505,-5431,249,50,-243,-129,24,89,443,-171
289,2,2022-09-30T19:56:38.343285,562510,-5431,249,50,-243,-129,24,89,443,-171
290,2,2022-09-30T19:56:38.348350,562515,-5431,249,50,-243,-129,24,89,443,-171
291,2,2022-09-30T19:56:38.353292,562521,-5437,248,51,-260,-135,19,89,443,-171
292,2,2022-09-30T19:56:38.359149,562527,-5437,248,51,-260,-135,19,89,443,-171
293,2,2022-09-30T19:56:38.365646,562533,-5437,248,51,-260,-135,19,89,443,-171
294,2,2022-09-30T19:56:38.375545,562538,-5437,248,51,-260,-135,19,89,443,-171
295,2,2022-09-30T19:56:38.388397,562548,-5435,247,47,-276,-176,-47,96,436,-156
296,2,2022-09-30T19:56:38.404583,562571,-5424,243,44,-288,-198,-139,96,436,-156
297,2,2022-09-30T19:56:38.418248,562585,-5423,238,44,-275,-185,-206,96,436,-156
298,2,2022-09-30T19:56:38.428847,562595,-5423,238,44,-275,-185,-206,96,436,-156
299,2,2022-09-30T19:56:38.439423,562607,-5431,233,44,-188,-188,-220,96,436,-156
300,2,2022-09-30T19:56:38.449276,562616,-5431,233,44,-188,-188,-220,96,436,-156
301,2,2022-09-30T19:56:38.456149,562624,-5431,233,44,-188,-188,-220,96,436,-156
302,2,2022-09-30T19:56:38.462548,562630,-5431,233,44,-188,-188,-220,96,436,-156
303,2,2022-09-30T19:56:38.468993,562636,-5431,233,44,-188,-188,-220,96,436,-156
304,2,2022-09-30T19:56:38.474062,562641,-5421,235,46,-45,-220,-145,96,436,-156
305,2,2022-09-30T19:56:38.480187,562647,-5421,235,46,-45,-220,-145,96,436,-156
306,2,2022-09-30T19:56:38.486429,562654,-5421,235,46,-45,-220,-145,96,436,-156
307,2,2022-09-30T19:56:38.492900,562660,-5417,244,45,-25,-220,-87,95,439,-167
308,2,2022-09-30T19:56:38.498095,562665,-5417,244,45,-25,-220,-87,95,439,-167
309,2,2022-09-30T19:56:38.504581,562672,-5417,244,45,-25,-220,-87,95,439,-167
310,2,2022-09-30T19:56:38.511513,562678,-5417,244,45,-25,-220,-87,95,439,-167
311,2,2022-09-30T19:56:38.516913,562684,-5424,246,41,-48,-201,-27,95,439,-167
312,2,2022-09-30T19:56:38.524665,562692,-5424,246,41,-48,-201,-27,95,439,-167
313,2,2022-09-30T19:56:38.531203,562698,-5424,246,41,-48,-201,-27,95,439,-167
314,2,2022-09-30T19:56:38.536388,562704,-5451,245,47,-68,-173,15,95,439,-167
315,2,2022-09-30T19:56:38.543802,562711,-5451,245,47,-68,-173,15,95,439,-167
316,2,2022-09-30T19:56:38.551268,562718,-5451,245,47,-68,-173,15,95,439,-167
317,2,2022-09-30T19:56:38.556649,562724,-5441,252,42,-76,-232,78,95,439,-167
318,2,2022-09-30T19:56:38.564417,562732,-5441,252,42,-76,-232,78,95,439,-167
319,2,2022-09-30T19:56:38.571813,562739,-5441,252,42,-76,-232,78,95,439,-167
320,2,2022-09-30T19:56:38.576857,562744,-5431,255,43,-42,-326,124,95,439,-167
321,2,2022-09-30T19:56:38.583239,562751,-5431,255,43,-42,-326,124,95,439,-167
322,2,2022-09-30T19:56:38.589492,562757,-5431,255,43,-42,-326,124,95,439,-167
323,2,2022-09-30T19:56:38.595042,562762,-5427,261,51,-17,-352,120,95,439,-167
324,2,2022-09-30T19:56:38.600653,562767,-5427,261,51,-17,-352,120,95,439,-167
325,2,2022-09-30T19:56:38.607867,562775,-5427,261,51,-17,-352,120,95,439,-167
326,2,2022-09-30T19:56:38.615065,562782,-5424,268,57,-40,-327,40,95,439,-167
327,2,2022-09-30T19:56:38.621038,562788,-5424,268,57,-40,-327,40,95,439,-167
328,2,2022-09-30T19:56:38.628348,562795,-5424,268,57,-40,-327,40,95,439,-167
329,2,2022-09-30T19:56:38.635643,562802,-5424,267,58,-95,-300,-50,97,447,-161
330,2,2022-09-30T19:56:38.641464,562808,-5424,267,58,-95,-300,-50,97,447,-161
331,2,2022-09-30T19:56:38.648907,562816,-5424,267,58,-95,-300,-50,97,447,-161
332,2,2022-09-30T19:56:38.655766,562823,-5422,269,63,-148,-277,-130,97,447,-161
333,2,2022-09-30T19:56:38.662901,562830,-5422,269,63,-148,-277,-130,97,447,-161
334,2,2022-09-30T19:56:38.671107,562838,-5422,269,63,-148,-277,-130,97,447,-161
335,2,2022-09-30T19:56:38.676651,562844,-5419,264,59,-206,-249,-164,97,447,-161
336,2,2022-09-30T19:56:38.683578,562850,-5419,264,59,-206,-249,-164,97,447,-161
337,2,2022-09-30T19:56:38.690551,562859,-5419,264,59,-206,-249,-164,97,447,-161
338,2,2022-09-30T19:56:38.695451,562863,-5421,257,53,-277,-197,-196,97,447,-161
339,2,2022-09-30T19:56:38.701678,562869,-5421,257,53,-277,-197,-196,97,447,-161
340,2,2022-09-30T19:56:38.706802,562874,-5421,257,53,-277,-197,-196,97,447,-161
341,2,2022-09-30T19:56:38.713324,562880,-5429,249,50,-322,-141,-199,97,447,-161
342,2,2022-09-30T19:56:38.718657,562886,-5429,249,50,-322,-141,-199,97,447,-161
343,2,2022-09-30T19:56:38.724448,562892,-5429,249,50,-322,-141,-199,97,447,-161
344,2,2022-09-30T19:56:38.730545,562897,-5429,249,50,-322,-141,-199,97,447,-161
345,2,2022-09-30T19:56:38.735383,562903,-5435,244,50,-310,-136,-164,97,447,-161
346,2,2022-09-30T19:56:38.740769,562908,-5435,244,50,-310,-136,-164,97,447,-161
347,2,2022-09-30T19:56:38.746851,562914,-5435,244,50,-310,-136,-164,97,447,-161
348,2,2022-09-30T19:56:38.753601,562921,-5428,242,49,-240,-181,-113,98,444,-162
349,2,2022-09-30T19:56:38.760041,562927,-5428,242,49,-240,-181,-113,98,444,-162
350,2,2022-09-30T19:56:38.767319,562935,-5428,242,49,-240,-181,-113,98,444,-162
351,2,2022-09-30T19:56:38.774381,562941,-5429,243,51,-197,-178,-96,98,444,-162
352,2,2022-09-30T19:56:38.779986,562947,-5429,243,51,-197,-178,-96,98,444,-162
353,2,2022-09-30T19:56:38.786766,562954,-5429,243,51,-197,-178,-96,98,444,-162
354,2,2022-09-30T19:56:38.793379,562961,-5434,245,49,-201,-179,-141,98,444,-162
355,2,2022-09-30T19:56:38.799618,562967,-5434,245,49,-201,-179,-141,98,444,-162
356,2,2022-09-30T19:56:38.804773,562972,-5434,245,49,-201,-179,-141,98,444,-162
357,2,2022-09-30T19:56:38.811111,562978,-5434,245,49,-201,-179,-141,98,444,-162
358,2,2022-09-30T19:56:38.816093,562983,-5435,240,46,-187,-231,-169,98,444,-162
359,2,2022-09-30T19:56:38.822258,562990,-5435,240,46,-187,-231,-169,98,444,-162
360,2,2022-09-30T19:56:38.827198,562995,-5435,240,46,-187,-231,-169,98,444,-162
361,2,2022-09-30T19:56:38.833565,563001,-5428,243,46,-176,-287,-150,98,444,-162
362,2,2022-09-30T19:56:38.839535,563007,-5428,243,46,-176,-287,-150,98,444,-162
363,2,2022-09-30T19:56:38.845883,563013,-5428,243,46,-176,-287,-150,98,444,-162
364,2,2022-09-30T19:56:38.852334,563019,-5424,248,48,-134,-299,-100,98,444,-162
365,2,2022-09-30T19:56:38.858849,563026,-5424,248,48,-134,-299,-100,98,444,-162
366,2,2022-09-30T19:56:38.865310,563033,-5424,248,48,-134,-299,-100,98,444,-162
367,2,2022-09-30T19:56:38.872347,563039,-5424,248,48,-134,-299,-100,98,444,-162
368,2,2022-09-30T19:56:38.877588,563045,-5422,250,50,-119,-283,-39,92,438,-164
369,2,2022-09-30T19:56:38.884736,563051,-5422,250,50,-119,-283,-39,92,438,-164
370,2,2022-09-30T19:56:38.891919,563059,-5422,250,50,-119,-283,-39,92,438,-164
371,2,2022-09-30T19:56:38.897560,563064,-5423,251,55,-124,-257,-14,92,438,-164
372,2,2022-09-30T19:56:38.904304,563072,-5423,251,55,-124,-257,-14,92,438,-164
373,2,2022-09-30T19:56:38.911318,563078,-5423,251,55,-124,-257,-14,92,438,-164
374,2,2022-09-30T19:56:38.917090,563084,-5427,249,55,-136,-237,-8,92,438,-164
375,2,2022-09-30T19:56:38.924788,563091,-5427,249,55,-136,-237,-8,92,438,-164
376,2,2022-09-30T19:56:38.931758,563098,-5427,249,55,-136,-237,-8,92,438,-164
377,2,2022-09-30T19:56:38.937912,563104,-5431,251,51,-150,-259,-43,92,438,-164
378,2,2022-09-30T19:56:38.945068,563111,-5431,251,51,-150,-259,-43,92,438,-164
379,2,2022-09-30T19:56:38.952039,563119,-5431,251,51,-150,-259,-43,92,438,-164
380,2,2022-09-30T19:56:38.958096,563125,-5423,249,48,-179,-273,-82,92,438,-164
381,2,2022-09-30T19:56:38.967646,563134,-5423,249,48,-179,-273,-82,92,438,-164
382,2,2022-09-30T19:56:38.974839,563141,-5420,249,56,-186,-268,-94,92,438,-164
383,2,2022-09-30T19:56:38.981916,563148,-5420,249,56,-186,-268,-94,92,438,-164
384,2,2022-09-30T19:56:38.989105,563155,-5420,249,56,-186,-268,-94,92,438,-164
385,2,2022-09-30T19:56:38.996430,563163,-5420,249,56,-186,-268,-94,93,437,-163
386,2,2022-09-30T19:56:39.002533,563169,-5420,249,56,-186,-268,-94,93,437,-163
387,2,2022-09-30T19:56:39.009711,563176,-5420,249,56,-186,-268,-94,93,437,-163
388,2,2022-09-30T19:56:39.017097,563183,-5421,251,58,-173,-229,-118,93,437,-163
389,2,2022-09-30T19:56:39.026103,563191,-5421,251,58,-173,-229,-118,93,437,-163
390,2,2022-09-30T19:56:39.034116,563200,-5423,250,58,-198,-221,-151,93,437,-163
391,2,2022-09-30T19:56:39.042173,563208,-5423,250,58,-198,-221,-151,93,437,-163
392,2,2022-09-30T19:56:39.048980,563216,-5423,250,58,-198,-221,-151,93,437,-163
393,2,2022-09-30T19:56:39.056076,563223,-5423,250,53,-241,-195,-185,93,437,-163
394,2,2022-09-30T19:56:39.061580,563229,-5423,250,53,-241,-195,-185,93,437,-163
395,2,2022-09-30T19:56:39.069093,563236,-5423,250,53,-241,-195,-185,93,437,-163
396,2,2022-09-30T19:56:39.076262,563244,-5423,249,54,-259,-178,-164,93,437,-163
397,2,2022-09-30T19:56:39.087785,563255,-5423,249,54,-259,-178,-164,93,437,-163
398,2,2022-09-30T19:56:39.097531,563265,-5427,245,58,-251,-181,-103,93,437,-163
399,2,2022-09-30T19:56:39.107747,563275,-5427,245,58,-251,-181,-103,93,437,-163
400,2,2022-09-30T19:56:39.117450,563284,-5429,244,53,-221,-181,-32,92,440,-172
401,2,2022-09-30T19:56:39.128042,563295,-5429,244,53,-221,-181,-32,92,440,-172
402,2,2022-09-30T19:56:39.136601,563304,-5433,243,53,-208,-159,-1,92,440,-172
403,2,2022-09-30T19:56:39.145137,563311,-5433,243,53,-208,-159,-1,92,440,-172
404,2,2022-09-30T19:56:39.155840,563321,-5429,243,44,-199,-176,-12,92,440,-172
405,2,2022-09-30T19:56:39.165190,563331,-5429,243,44,-199,-176,-12,92,440,-172
406,2,2022-09-30T19:56:39.185113,563342,-5431,242,46,-168,-214,-29,92,440,-172
407,2,2022-09-30T19:56:39.193411,563360,-5427,241,47,-99,-272,-42,92,440,-172
408,2,2022-09-30T19:56:39.205103,563372,-5427,241,47,-99,-272,-42,92,440,-172
409,2,2022-09-30T19:56:39.215205,563382,-5426,250,54,-49,-287,-49,92,440,-172
410,2,2022-09-30T19:56:39.220958,563388,-5426,250,54,-49,-287,-49,92,440,-172
411,2,2022-09-30T19:56:39.229788,563396,-5426,250,54,-49,-287,-49,92,440,-172
412,2,2022-09-30T19:56:39.236297,563403,-5417,260,51,-44,-251,-45,92,440,-172
413,2,2022-09-30T19:56:39.241900,563409,-5417,260,51,-44,-251,-45,92,440,-172
414,2,2022-09-30T19:56:39.247474,563415,-5417,260,51,-44,-251,-45,92,440,-172
415,2,2022-09-30T19:56:39.253831,563421,-5411,259,57,-85,-178,-49,88,450,-168
416,2,2022-09-30T19:56:39.260619,563428,-5411,259,57,-85,-178,-49,88,450,-168
417,2,2022-09-30T19:56:39.265940,563433,-5411,259,57,-85,-178,-49,88,450,-168
418,2,2022-09-30T19:56:39.272359,563440,-5411,259,57,-85,-178,-49,88,450,-168
419,2,2022-09-30T19:56:39.278121,563445,-5433,254,54,-167,-89,-72,88,450,-168
420,2,2022-09-30T19:56:39.284848,563451,-5433,254,54,-167,-89,-72,88,450,-168
421,2,2022-09-30T19:56:39.293919,563461,-5445,251,55,-239,-103,-86,88,450,-168
422,2,2022-09-30T19:56:39.301366,563469,-5445,251,55,-239,-103,-86,88,450,-168
423,2,2022-09-30T19:56:39.308053,563475,-5445,251,55,-239,-103,-86,88,450,-168
424,2,2022-09-30T19:56:39.316379,563482,-5427,248,49,-260,-214,-52,88,450,-168
425,2,2022-09-30T19:56:39.321702,563489,-5427,248,49,-260,-214,-52,88,450,-168
426,2,2022-09-30T19:56:39.326970,563494,-5427,248,49,-260,-214,-52,88,450,-168
427,2,2022-09-30T19:56:39.335522,563503,-5417,251,49,-219,-274,-13,88,450,-168
428,2,2022-09-30T19:56:39.343699,563511,-5417,251,49,-219,-274,-13,88,450,-168
429,2,2022-09-30T19:56:39.352574,563519,-5417,251,49,-219,-274,-13,88,450,-168
430,2,2022-09-30T19:56:39.361152,563528,-5418,253,47,-181,-221,29,88,450,-168
431,2,2022-09-30T19:56:39.369598,563536,-5418,253,47,-181,-221,29,88,450,-168
432,2,2022-09-30T19:56:39.376154,563544,-5427,259,52,-160,-162,30,93,449,-167
433,2,2022-09-30T19:56:39.383321,563550,-5427,259,52,-160,-162,30,93,449,-167
434,2,2022-09-30T19:56:39.389196,563556,-5427,259,52,-160,-162,30,93,449,-167
435,2,2022-09-30T19:56:39.398283,563562,-5433,259,50,-172,-149,-14,93,449,-167
436,2,2022-09-30T19:56:39.409856,563577,-5433,259,50,-172,-149,-14,93,449,-167
437,2,2022-09-30T19:56:39.420267,563587,-5436,265,50,-216,-148,-55,93,449,-167
438,2,2022-09-30T19:56:39.430925,563598,-5436,265,50,-216,-148,-55,93,449,-167
439,2,2022-09-30T19:56:39.437926,563605,-5433,258,45,-265,-186,-93,93,449,-167
440,2,2022-09-30T19:56:39.444434,563610,-5433,258,45,-265,-186,-93,93,449,-167
441,2,2022-09-30T19:56:39.451122,563618,-5433,258,45,-265,-186,-93,93,449,-167
442,2,2022-09-30T19:56:39.456579,563623,-5434,248,48,-313,-206,-129,93,449,-167
443,2,2022-09-30T19:56:39.463924,563631,-5434,248,48,-313,-206,-129,93,449,-167
444,2,2022-09-30T19:56:39.470291,563638,-5434,248,48,-313,-206,-129,93,449,-167
445,2,2022-09-30T19:56:39.475520,563643,-5433,244,50,-312,-244,-150,93,449,-167
446,2,2022-09-30T19:56:39.481225,563648,-5433,244,50,-312,-244,-150,93,449,-167
447,2,2022-09-30T19:56:39.487254,563654,-5433,244,50,-312,-244,-150,93,449,-167
448,2,2022-09-30T19:56:39.494380,563661,-5423,243,42,-252,-279,-134,86,448,-160
449,2,2022-09-30T19:56:39.499698,563666,-5423,243,42,-252,-279,-134,86,448,-160
450,2,2022-09-30T19:56:39.507016,563674,-5423,243,42,-252,-279,-134,86,448,-160
451,2,2022-09-30T19:56:39.515272,563683,-5424,242,51,-175,-282,-97,86,448,-160
452,2,2022-09-30T19:56:39.521740,563689,-5424,242,51,-175,-282,-97,86,448,-160
453,2,2022-09-30T19:56:39.528369,563696,-5424,242,51,-175,-282,-97,86,448,-160
454,2,2022-09-30T19:56:39.535818,563703,-5422,244,53,-147,-268,-101,86,448,-160
455,2,2022-09-30T19:56:39.541398,563708,-5422,244,53,-147,-268,-101,86,448,-160
456,2,2022-09-30T19:56:39.547992,563716,-5422,244,53,-147,-268,-101,86,448,-160
457,2,2022-09-30T19:56:39.554536,563722,-5429,246,58,-173,-257,-136,86,448,-160
458,2,2022-09-30T19:56:39.560000,563727,-5429,246,58,-173,-257,-136,86,448,-160
459,2,2022-09-30T19:56:39.566357,563734,-5429,246,58,-173,-257,-136,86,448,-160
460,2,2022-09-30T19:56:39.572738,563740,-5423,252,56,-210,-254,-125,86,448,-160
461,2,2022-09-30T19:56:39.578237,563745,-5423,252,56,-210,-254,-125,86,448,-160
462,2,2022-09-30T19:56:39.585547,563752,-5423,252,56,-210,-254,-125,86,448,-160
463,2,2022-09-30T19:56:39.592167,563760,-5423,252,56,-210,-254,-125,86,448,-160
464,2,2022-09-30T19:56:39.596967,563765,-5423,259,49,-220,-224,-66,86,448,-160
465,2,2022-09-30T19:56:39.604116,563772,-5423,259,49,-220,-224,-66,86,448,-160
466,2,2022-09-30T19:56:39.611654,563778,-5423,259,49,-220,-224,-66,86,448,-160
467,2,2022-09-30T19:56:39.617781,563784,-5428,252,56,-232,-194,-8,84,444,-162
468,2,2022-09-30T19:56:39.627334,563793,-5428,252,56,-232,-194,-8,84,444,-162
469,2,2022-09-30T19:56:39.637107,563802,-5428,254,57,-261,-179,-11,84,444,-162
470,2,2022-09-30T19:56:39.643551,563811,-5428,254,57,-261,-179,-11,84,444,-162
471,2,2022-09-30T19:56:39.652620,563820,-5428,254,57,-261,-179,-11,84,444,-162
472,2,2022-09-30T19:56:39.658293,563825,-5426,249,52,-271,-180,-42,84,444,-162
473,2,2022-09-30T19:56:39.666192,563833,-5426,249,52,-271,-180,-42,84,444,-162
474,2,2022-09-30T19:56:39.671332,563838,-5426,249,52,-271,-180,-42,84,444,-162
475,2,2022-09-30T19:56:39.676461,563844,-5430,249,49,-266,-192,-74,84,444,-162
476,2,2022-09-30T19:56:39.683764,563851,-5430,249,49,-266,-192,-74,84,444,-162
477,2,2022-09-30T19:56:39.688671,563856,-5430,249,49,-266,-192,-74,84,444,-162
478,2,2022-09-30T19:56:39.694995,563862,-5432,248,52,-244,-215,-109,84,444,-162
479,2,2022-09-30T19:56:39.700562,563868,-5432,248,52,-244,-215,-109,84,444,-162
480,2,2022-09-30T19:56:39.706106,563873,-5432,248,52,-244,-215,-109,84,444,-162
481,2,2022-09-30T19:56:39.712721,563879,-5432,248,52,-244,-215,-109,84,444,-162
482,2,2022-09-30T19:56:39.718059,563886,-5428,248,47,-223,-255,-119,84,444,-162
483,2,2022-09-30T19:56:39.724441,563892,-5428,248,47,-223,-255,-119,84,444,-162
484,2,2022-09-30T19:56:39.731300,563899,-5428,248,47,-223,-255,-119,84,444,-162
485,2,2022-09-30T19:56:39.736460,563904,-5425,249,56,-191,-249,-124,91,441,-167
486,2,2022-09-30T19:56:39.743056,563910,-5425,249,56,-191,-249,-124,91,441,-167
487,2,2022-09-30T19:56:39.748346,563916,-5425,249,56,-191,-249,-124,91,441,-167
488,2,2022-09-30T19:56:39.755315,563922,-5421,249,52,-193,-217,-123,91,441,-167
489,2,2022-09-30T19:56:39.760980,563929,-5421,249,52,-193,-217,-123,91,441,-167
490,2,2022-09-30T19:56:39.767470,563935,-5421,249,52,-193,-217,-123,91,441,-167
491,2,2022-09-30T19:56:39.774216,563942,-5426,247,54,-203,-202,-129,91,441,-167
492,2,2022-09-30T19:56:39.779740,563947,-5426,247,54,-203,-202,-129,91,441,-167
493,2,2022-09-30T19:56:39.786203,563953,-5426,247,54,-203,-202,-129,91,441,-167
494,2,2022-09-30T19:56:39.792700,563960,-5426,247,54,-203,-202,-129,91,441,-167
495,2,2022-09-30T19:56:39.797689,563965,-5423,243,52,-208,-200,-137,91,441,-167
496,2,2022-09-30T19:56:39.807250,563974,-5423,243,52,-208,-200,-137,91,441,-167
497,2,2022-09-30T19:56:39.813022,563980,-5423,243,52,-208,-200,-137,91,441,-167
498,2,2022-09-30T19:56:39.818733,563986,-5424,246,53,-216,-201,-135,91,441,-167
499,2,2022-09-30T19:56:39.824257,563991,-5424,246,53,-216,-201,-135,91,441,-167
500,2,2022-09-30T19:56:39.832964,563999,-5424,246,53,-216,-201,-135,91,441,-167
501,2,2022-09-30T19:56:39.840351,564007,-5427,245,50,-208,-177,-92,91,441,-167
502,2,2022-09-30T19:56:39.847764,564016,-5427,245,50,-208,-177,-92,91,441,-167
503,2,2022-09-30T19:56:39.856590,564023,-5427,247,47,-197,-162,-31,91,441,-167
504,2,2022-09-30T19:56:39.862514,564030,-5427,247,47,-197,-162,-31,91,441,-167
505,2,2022-09-30T19:56:39.868021,564035,-5427,247,47,-197,-162,-31,91,441,-167
506,2,2022-09-30T19:56:39.874719,564042,-5428,243,51,-198,-163,-9,92,444,-166
507,2,2022-09-30T19:56:39.881065,564047,-5428,243,51,-198,-163,-9,92,444,-166
508,2,2022-09-30T19:56:39.888270,564056,-5428,243,51,-198,-163,-9,92,444,-166
509,2,2022-09-30T19:56:39.894941,564062,-5436,241,51,-162,-187,2,92,444,-166
510,2,2022-09-30T19:56:39.900619,564068,-5436,241,51,-162,-187,2,92,444,-166
511,2,2022-09-30T19:56:39.907489,564075,-5436,241,51,-162,-187,2,92,444,-166
512,2,2022-09-30T19:56:39.913682,564081,-5433,243,50,-107,-245,0,92,444,-166
513,2,2022-09-30T19:56:39.919936,564087,-5433,243,50,-107,-245,0,92,444,-166
514,2,2022-09-30T19:56:39.926095,564093,-5433,243,50,-107,-245,0,92,444,-166
515,2,2022-09-30T19:56:39.932722,564100,-5433,243,50,-107,-245,0,92,444,-166
516,2,2022-09-30T19:56:39.938545,564106,-5426,248,50,-61,-271,-30,92,444,-166
517,2,2022-09-30T19:56:39.945751,564113,-5426,248,50,-61,-271,-30,92,444,-166
518,2,2022-09-30T19:56:39.952337,564120,-5426,248,50,-61,-271,-30,92,444,-166
519,2,2022-09-30T19:56:39.958217,564125,-5424,254,50,-36,-247,-76,92,444,-166
520,2,2022-09-30T19:56:39.965045,564132,-5424,254,50,-36,-247,-76,92,444,-166
521,2,2022-09-30T19:56:39.971893,564140,-5424,254,50,-36,-247,-76,92,444,-166
522,2,2022-09-30T19:56:39.977187,564145,-5423,259,51,-52,-200,-87,92,444,-166
523,2,2022-09-30T19:56:39.988345,564155,-5423,259,51,-52,-200,-87,92,444,-166
524,2,2022-09-30T19:56:39.994916,564162,-5433,257,57,-107,-160,-97,98,442,-160
525,2,2022-09-30T19:56:40.001181,564167,-5433,257,57,-107,-160,-97,98,442,-160
526,2,2022-09-30T19:56:40.008839,564175,-5433,257,57,-107,-160,-97,98,442,-160
527,2,2022-09-30T19:56:40.015328,564183,-5448,254,57,-186,-152,-137,98,442,-160
528,2,2022-09-30T19:56:40.020610,564188,-5448,254,57,-186,-152,-137,98,442,-160
529,2,2022-09-30T19:56:40.026881,564195,-5448,254,57,-186,-152,-137,98,442,-160
530,2,2022-09-30T19:56:40.033239,564201,-5441,248,51,-257,-215,-162,98,442,-160
531,2,2022-09-30T19:56:40.039746,564207,-5441,248,51,-257,-215,-162,98,442,-160
532,2,2022-09-30T19:56:40.045025,564212,-5441,248,51,-257,-215,-162,98,442,-160
533,2,2022-09-30T19:56:40.051174,564218,-5441,248,51,-257,-215,-162,98,442,-160
534,2,2022-09-30T19:56:40.057029,564225,-5418,245,47,-253,-276,-146,98,442,-160
535,2,2022-09-30T19:56:40.065240,564232,-5418,245,47,-253,-276,-146,98,442,-160
536,2,2022-09-30T19:56:40.072330,564239,-5418,245,47,-253,-276,-146,98,442,-160
537,2,2022-09-30T19:56:40.078573,564246,-5412,242,46,-208,-254,-126,98,442,-160
538,2,2022-09-30T19:56:40.088420,564256,-5412,242,46,-208,-254,-126,98,442,-160
539,2,2022-09-30T19:56:40.095082,564262,-5424,239,49,-156,-187,-125,98,442,-160
540,2,2022-09-30T19:56:40.100860,564268,-5424,239,49,-156,-187,-125,98,442,-160
541,2,2022-09-30T19:56:40.108099,564275,-5424,239,49,-156,-187,-125,98,442,-160
542,2,2022-09-30T19:56:40.115402,564283,-5426,241,50,-110,-152,-134,87,447,-163
543,2,2022-09-30T19:56:40.120522,564288,-5426,241,50,-110,-152,-134,87,447,-163
544,2,2022-09-30T19:56:40.126994,564294,-5426,241,50,-110,-152,-134,87,447,-163
545,2,2022-09-30T19:56:40.133966,564300,-5430,248,51,-63,-169,-115,87,447,-163
546,2,2022-09-30T19:56:40.139609,564306,-5430,248,51,-63,-169,-115,87,447,-163
547,2,2022-09-30T19:56:40.146831,564314,-5430,248,51,-63,-169,-115,87,447,-163
548,2,2022-09-30T19:56:40.152946,564321,-5430,248,51,-63,-169,-115,87,447,-163
549,2,2022-09-30T19:56:40.158448,564326,-5428,251,44,-37,-165,-84,87,447,-163
550,2,2022-09-30T19:56:40.164963,564332,-5428,251,44,-37,-165,-84,87,447,-163
551,2,2022-09-30T19:56:40.171569,564339,-5428,251,44,-37,-165,-84,87,447,-163
552,2,2022-09-30T19:56:40.177244,564344,-5431,249,47,-49,-174,-71,87,447,-163
553,2,2022-09-30T19:56:40.186685,564354,-5431,249,47,-49,-174,-71,87,447,-163
554,2,2022-09-30T19:56:40.194953,564363,-5436,244,50,-46,-207,-84,87,447,-163
555,2,2022-09-30T19:56:40.201720,564369,-5436,244,50,-46,-207,-84,87,447,-163
556,2,2022-09-30T19:56:40.208749,564375,-5436,244,50,-46,-207,-84,87,447,-163
557,2,2022-09-30T19:56:40.215781,564383,-5434,246,48,-27,-255,-90,87,447,-163
558,2,2022-09-30T19:56:40.221249,564388,-5434,246,48,-27,-255,-90,87,447,-163
559,2,2022-09-30T19:56:40.227096,564393,-5434,246,48,-27,-255,-90,87,447,-163
560,2,2022-09-30T19:56:40.232962,564400,-5434,246,48,-27,-255,-90,87,447,-163
561,2,2022-09-30T19:56:40.239133,564406,-5422,249,56,-16,-294,-117,88,442,-170
562,2,2022-09-30T19:56:40.244572,564412,-5422,249,56,-16,-294,-117,88,442,-170
563,2,2022-09-30T19:56:40.251080,564419,-5422,249,56,-16,-294,-117,88,442,-170
564,2,2022-09-30T19:56:40.257495,564424,-5420,251,56,-31,-275,-141,88,442,-170
565,2,2022-09-30T19:56:40.263043,564430,-5420,251,56,-31,-275,-141,88,442,-170
566,2,2022-09-30T19:56:40.268516,564435,-5420,251,56,-31,-275,-141,88,442,-170
567,2,2022-09-30T19:56:40.275431,564443,-5426,253,55,-91,-251,-151,88,442,-170
568,2,2022-09-30T19:56:40.282595,564448,-5426,253,55,-91,-251,-151,88,442,-170
569,2,2022-09-30T19:56:40.289845,564457,-5426,253,55,-91,-251,-151,88,442,-170
570,2,2022-09-30T19:56:40.296733,564464,-5427,248,55,-127,-258,-100,88,442,-170
571,2,2022-09-30T19:56:40.303212,564470,-5427,248,55,-127,-258,-100,88,442,-170
572,2,2022-09-30T19:56:40.308909,564476,-5427,248,55,-127,-258,-100,88,442,-170
573,2,2022-09-30T19:56:40.316194,564484,-5423,250,58,-142,-272,-41,88,442,-170
574,2,2022-09-30T19:56:40.321344,564489,-5423,250,58,-142,-272,-41,88,442,-170
575,2,2022-09-30T19:56:40.326359,564494,-5423,250,58,-142,-272,-41,88,442,-170
576,2,2022-09-30T19:56:40.333345,564500,-5423,250,58,-142,-272,-41,88,442,-170
577,2,2022-09-30T19:56:40.338703,564506,-5416,254,50,-157,-242,-20,88,442,-170
578,2,2022-09-30T19:56:40.345160,564512,-5416,254,50,-157,-242,-20,88,442,-170
579,2,2022-09-30T19:56:40.355026,564521,-5419,251,53,-171,-180,-50,90,442,-160
580,2,2022-09-30T19:56:40.364243,564529,-5419,251,53,-171,-180,-50,90,442,-160
581,2,2022-09-30T19:56:40.371492,564539,-5419,251,53,-171,-180,-50,90,442,-160
582,2,2022-09-30T19:56:40.379021,564546,-5431,246,46,-161,-120,-83,90,442,-160
583,2,2022-09-30T19:56:40.388233,564555,-5431,246,46,-161,-120,-83,90,442,-160
584,2,2022-09-30T19:56:40.394809,564562,-5437,245,45,-135,-115,-93,90,442,-160
585,2,2022-09-30T19:56:40.400887,564568,-5437,245,45,-135,-115,-93,90,442,-160
586,2,2022-09-30T19:56:40.410046,564577,-5437,245,45,-135,-115,-93,90,442,-160
587,2,2022-09-30T19:56:40.419933,564587,-5433,244,42,-75,-164,-101,90,442,-160
588,2,2022-09-30T19:56:40.429219,564595,-5433,244,42,-75,-164,-101,90,442,-160
589,2,2022-09-30T19:56:40.438726,564605,-5428,241,42,-4,-239,-111,90,442,-160
590,2,2022-09-30T19:56:40.446179,564614,-5428,241,42,-4,-239,-111,90,442,-160
591,2,2022-09-30T19:56:40.453729,564621,-5428,241,42,-4,-239,-111,90,442,-160
592,2,2022-09-30T19:56:40.461103,564628,-5436,245,41,79,-293,-109,90,442,-160
593,2,2022-09-30T19:56:40.468184,564635,-5436,245,41,79,-293,-109,90,442,-160
594,2,2022-09-30T19:56:40.474900,564642,-5434,249,49,127,-330,-91,90,442,-160
595,2,2022-09-30T19:56:40.481748,564647,-5434,249,49,127,-330,-91,90,442,-160
596,2,2022-09-30T19:56:40.489264,564657,-5434,249,49,127,-330,-91,90,442,-160
597,2,2022-09-30T19:56:40.495681,564663,-5433,252,58,149,-348,-84,91,443,-165
598,2,2022-09-30T19:56:40.500868,564668,-5433,252,58,149,-348,-84,91,443,-165
599,2,2022-09-30T19:56:40.507840,564675,-5433,252,58,149,-348,-84,91,443,-165
600,2,2022-09-30T19:56:40.515227,564682,-5429,257,53,153,-371,-104,91,443,-165
601,2,2022-09-30T19:56:40.521444,564687,-5429,257,53,153,-371,-104,91,443,-165
602,2,2022-09-30T19:56:40.527878,564696,-5429,257,53,153,-371,-104,91,443,-165
603,2,2022-09-30T19:56:40.534865,564703,-5421,262,55,102,-375,-159,91,443,-165
604,2,2022-09-30T19:56:40.540249,564708,-5421,262,55,102,-375,-159,91,443,-165
605,2,2022-09-30T19:56:40.546608,564714,-5421,262,55,102,-375,-159,91,443,-165
606,2,2022-09-30T19:56:40.553749,564721,-5421,262,55,102,-375,-159,91,443,-165
607,2,2022-09-30T19:56:40.560223,564727,-5424,257,57,33,-378,-204,91,443,-165
608,2,2022-09-30T19:56:40.568546,564736,-5424,257,57,33,-378,-204,91,443,-165
609,2,2022-09-30T19:56:40.575333,564743,-5422,256,55,-24,-374,-222,91,443,-165
610,2,2022-09-30T19:56:40.581200,564748,-5422,256,55,-24,-374,-222,91,443,-165
611,2,2022-09-30T19:56:40.586868,564754,-5422,256,55,-24,-374,-222,91,443,-165
612,2,2022-09-30T19:56:40.594335,564762,-5416,256,57,-69,-352,-196,91,443,-165
613,2,2022-09-30T19:56:40.599772,564767,-5416,256,57,-69,-352,-196,91,443,-165
614,2,2022-09-30T19:56:40.605277,564772,-5416,256,57,-69,-352,-196,91,443,-165
615,2,2022-09-30T19:56:40.612119,564780,-5416,256,57,-69,-352,-196,91,443,-165
616,2,2022-09-30T19:56:40.617578,564785,-5415,247,64,-97,-312,-139,96,438,-170
617,2,2022-09-30T19:56:40.627543,564795,-5415,247,64,-97,-312,-139,96,438,-170
618,2,2022-09-30T19:56:40.635614,564803,-5410,248,61,-73,-266,-105,96,438,-170
619,2,2022-09-30T19:56:40.644967,564810,-5410,248,61,-73,-266,-105,96,438,-170
620,2,2022-09-30T19:56:40.651853,564819,-5410,248,61,-73,-266,-105,96,438,-170
621,2,2022-09-30T19:56:40.660918,564828,-5422,244,56,-24,-207,-81,96,438,-170
622,2,2022-09-30T19:56:40.671666,564839,-5422,244,56,-24,-207,-81,96,438,-170
623,2,2022-09-30T19:56:40.678735,564846,-5426,242,56,5,-181,-128,96,438,-170
624,2,2022-09-30T19:56:40.693234,564860,-5426,242,56,5,-181,-128,96,438,-170
625,2,2022-09-30T19:56:40.701096,564868,-5426,248,53,33,-147,-184,96,438,-170
626,2,2022-09-30T19:56:40.708730,564876,-5426,248,53,33,-147,-184,96,438,-170
627,2,2022-09-30T19:56:40.714288,564881,-5426,248,53,33,-147,-184,96,438,-170
628,2,2022-09-30T19:56:40.720364,564887,-5416,251,61,50,-129,-185,96,438,-170
629,2,2022-09-30T19:56:40.727642,564895,-5416,251,61,50,-129,-185,96,438,-170
630,2,2022-09-30T19:56:40.735702,564902,-5423,249,62,39,-128,-167,99,443,-171
631,2,2022-09-30T19:56:40.741800,564909,-5423,249,62,39,-128,-167,99,443,-171
632,2,2022-09-30T19:56:40.748964,564917,-5423,249,62,39,-128,-167,99,443,-171
633,2,2022-09-30T19:56:40.756364,564924,-5452,245,57,-21,-153,-165,99,443,-171
634,2,2022-09-30T19:56:40.763395,564930,-5452,245,57,-21,-153,-165,99,443,-171
635,2,2022-09-30T19:56:40.771749,564939,-5452,245,57,-21,-153,-165,99,443,-171
636,2,2022-09-30T19:56:40.779516,564946,-5438,240,62,-62,-272,-157,99,443,-171
637,2,2022-09-30T19:56:40.790361,564957,-5438,240,62,-62,-272,-157,99,443,-171
638,2,2022-09-30T19:56:40.799530,564966,-5416,243,51,-35,-369,-118,99,443,-171
639,2,2022-09-30T19:56:40.806164,564973,-5416,243,51,-35,-369,-118,99,443,-171
640,2,2022-09-30T19:56:40.815850,564982,-5409,247,60,6,-340,-61,99,443,-171
641,2,2022-09-30T19:56:40.823117,564989,-5409,247,60,6,-340,-61,99,443,-171
642,2,2022-09-30T19:56:40.831797,564998,-5409,247,60,6,-340,-61,99,443,-171
643,2,2022-09-30T19:56:40.837832,565005,-5413,250,65,48,-232,-19,99,443,-171
644,2,2022-09-30T19:56:40.844562,565011,-5413,250,65,48,-232,-19,99,443,-171
645,2,2022-09-30T19:56:40.851051,565018,-5413,250,65,48,-232,-19,99,443,-171
646,2,2022-09-30T19:56:40.859447,565026,-5413,250,65,48,-232,-19,89,439,-165
647,2,2022-09-30T19:56:40.867485,565035,-5413,250,65,48,-232,-19,89,439,-165
648,2,2022-09-30T19:56:40.873028,565040,-5413,250,65,48,-232,-19,89,439,-165
649,2,2022-09-30T19:56:40.879546,565046,-5423,261,59,91,-132,-10,89,439,-165
650,2,2022-09-30T19:56:40.889266,565056,-5423,261,59,91,-132,-10,89,439,-165
651,2,2022-09-30T19:56:40.899060,565066,-5431,261,58,63,-100,-45,89,439,-165
652,2,2022-09-30T19:56:40.909190,565075,-5431,261,58,63,-100,-45,89,439,-165
653,2,2022-09-30T19:56:40.918128,565085,-5434,261,55,7,-118,-107,89,439,-165
654,2,2022-09-30T19:56:40.927120,565093,-5434,261,55,7,-118,-107,89,439,-165
655,2,2022-09-30T19:56:40.936712,565104,-5435,253,56,-25,-166,-173,89,439,-165
656,2,2022-09-30T19:56:40.944183,565109,-5435,253,56,-25,-166,-173,89,439,-165
657,2,2022-09-30T19:56:40.952693,565118,-5435,253,56,-25,-166,-173,89,439,-165
658,2,2022-09-30T19:56:40.961106,565128,-5430,250,52,-3,-225,-198,89,439,-165
659,2,2022-09-30T19:56:40.968242,565136,-5430,250,52,-3,-225,-198,89,439,-165
660,2,2022-09-30T19:56:40.976189,565143,-5417,248,56,27,-235,-206,88,446,-164
661,2,2022-09-30T19:56:40.982594,565149,-5417,248,56,27,-235,-206,88,446,-164
662,2,2022-09-30T19:56:40.989426,565157,-5417,248,56,27,-235,-206,88,446,-164
663,2,2022-09-30T19:56:40.995755,565164,-5420,254,57,31,-207,-184,88,446,-164
664,2,2022-09-30T19:56:41.001139,565169,-5420,254,57,31,-207,-184,88,446,-164
665,2,2022-09-30T19:56:41.007549,565175,-5420,254,57,31,-207,-184,88,446,-164
666,2,2022-09-30T19:56:41.015766,565183,-5429,252,54,-23,-195,-164,88,446,-164
667,2,2022-09-30T19:56:41.023302,565191,-5429,252,54,-23,-195,-164,88,446,-164
668,2,2022-09-30T19:56:41.028548,565196,-5429,252,54,-23,-195,-164,88,446,-164
669,2,2022-09-30T19:56:41.035803,565203,-5430,248,59,-77,-221,-148,88,446,-164
670,2,2022-09-30T19:56:41.041335,565209,-5430,248,59,-77,-221,-148,88,446,-164
671,2,2022-09-30T19:56:41.047484,565215,-5430,248,59,-77,-221,-148,88,446,-164
672,2,2022-09-30T19:56:41.054423,565222,-5430,248,59,-77,-221,-148,88,446,-164
673,2,2022-09-30T19:56:41.060401,565227,-5420,251,55,-97,-223,-130,88,446,-164
674,2,2022-09-30T19:56:41.067560,565235,-5420,251,55,-97,-223,-130,88,446,-164
675,2,2022-09-30T19:56:41.076332,565242,-5420,253,54,-131,-199,-100,88,446,-164
676,2,2022-09-30T19:56:41.083324,565250,-5420,253,54,-131,-199,-100,88,446,-164
677,2,2022-09-30T19:56:41.091796,565258,-5420,253,54,-131,-199,-100,88,446,-164
678,2,2022-09-30T19:56:41.100007,565267,-5428,249,50,-115,-167,-85,88,446,-164
679,2,2022-09-30T19:56:41.109245,565276,-5428,249,50,-115,-167,-85,88,446,-164
680,2,2022-09-30T19:56:41.117813,565284,-5433,246,55,-53,-154,-101,92,442,-158
681,2,2022-09-30T19:56:41.126784,565294,-5433,246,55,-53,-154,-101,92,442,-158
682,2,2022-09-30T19:56:41.136675,565303,-5432,254,51,-6,-202,-134,92,442,-158
683,2,2022-09-30T19:56:41.142380,565310,-5432,254,51,-6,-202,-134,92,442,-158
684,2,2022-09-30T19:56:41.150265,565317,-5432,254,51,-6,-202,-134,92,442,-158
685,2,2022-09-30T19:56:41.157993,565324,-5432,257,49,10,-260,-159,92,442,-158
686,2,2022-09-30T19:56:41.168254,565335,-5432,257,49,10,-260,-159,92,442,-158
687,2,2022-09-30T19:56:41.176482,565343,-5431,257,49,-1,-278,-158,92,442,-158
688,2,2022-09-30T19:56:41.183406,565350,-5431,257,49,-1,-278,-158,92,442,-158
689,2,2022-09-30T19:56:41.192288,565359,-5431,257,49,-1,-278,-158,92,442,-158
690,2,2022-09-30T19:56:41.200307,565367,-5429,256,60,-21,-287,-132,92,442,-158
691,2,2022-09-30T19:56:41.209031,565374,-5429,256,60,-21,-287,-132,92,442,-158
692,2,2022-09-30T19:56:41.216635,565384,-5421,255,53,-52,-278,-123,92,442,-158
693,2,2022-09-30T19:56:41.224771,565390,-5421,255,53,-52,-278,-123,92,442,-158
694,2,2022-09-30T19:56:41.232373,565399,-5421,255,53,-52,-278,-123,92,442,-158
695,2,2022-09-30T19:56:41.240041,565407,-5415,253,61,-117,-254,-147,102,450,-166
696,2,2022-09-30T19:56:41.248240,565414,-5415,253,61,-117,-254,-147,102,450,-166
697,2,2022-09-30T19:56:41.256290,565424,-5418,252,57,-154,-206,-166,102,450,-166
698,2,2022-09-30T19:56:41.264491,565431,-5418,252,57,-154,-206,-166,102,450,-166
699,2,2022-09-30T19:56:41.272724,565440,-5418,252,57,-154,-206,-166,102,450,-166
700,2,2022-09-30T19:56:41.280617,565447,-5423,246,55,-161,-172,-158,102,450,-166
701,2,2022-09-30T19:56:41.291364,565458,-5423,246,55,-161,-172,-158,102,450,-166
702,2,2022-09-30T19:56:41.297249,565465,-5428,247,58,-135,-160,-109,102,450,-166
703,2,2022-09-30T19:56:41.306617,565474,-5428,247,58,-135,-160,-109,102,450,-166
704,2,2022-09-30T19:56:41.314858,565482,-5428,247,58,-135,-160,-109,102,450,-166
705,2,2022-09-30T19:56:41.320924,565488,-5433,244,57,-91,-165,-65,102,450,-166
706,2,2022-09-30T19:56:41.331128,565497,-5433,244,57,-91,-165,-65,102,450,-166
707,2,2022-09-30T19:56:41.340090,565507,-5433,243,58,-38,-191,-67,102,450,-166
708,2,2022-09-30T19:56:41.348920,565516,-5433,243,58,-38,-191,-67,102,450,-166
709,2,2022-09-30T19:56:41.356136,565524,-5429,252,60,-25,-204,-86,92,446,-172
710,2,2022-09-30T19:56:41.363675,565530,-5429,252,60,-25,-204,-86,92,446,-172
711,2,2022-09-30T19:56:41.371306,565538,-5429,252,60,-25,-204,-86,92,446,-172
712,2,2022-09-30T19:56:41.380527,565548,-5429,255,62,-20,-234,-88,92,446,-172
713,2,2022-09-30T19:56:41.391657,565558,-5429,255,62,-20,-234,-88,92,446,-172
714,2,2022-09-30T19:56:41.398765,565566,-5425,258,60,-3,-279,-97,92,446,-172
715,2,2022-09-30T19:56:41.405085,565572,-5425,258,60,-3,-279,-97,92,446,-172
716,2,2022-09-30T19:56:41.411747,565578,-5425,258,60,-3,-279,-97,92,446,-172
717,2,2022-09-30T19:56:41.418764,565586,-5425,262,66,-16,-298,-118,92,446,-172
718,2,2022-09-30T19:56:41.427763,565595,-5425,262,66,-16,-298,-118,92,446,-172
719,2,2022-09-30T19:56:41.438962,565603,-5420,261,59,-60,-265,-129,92,446,-172
720,2,2022-09-30T19:56:41.447018,565614,-5420,261,59,-60,-265,-129,92,446,-172
721,2,2022-09-30T19:56:41.455757,565622,-5420,261,59,-60,-265,-129,92,446,-172
722,2,2022-09-30T19:56:41.462490,565629,-5412,262,61,-117,-227,-150,92,446,-172
723,2,2022-09-30T19:56:41.472768,565639,-5412,262,61,-117,-227,-150,92,446,-172
724,2,2022-09-30T19:56:41.481089,565648,-5431,256,60,-180,-164,-181,104,448,-164
725,2,2022-09-30T19:56:41.491113,565658,-5431,256,60,-180,-164,-181,104,448,-164
726,2,2022-09-30T19:56:41.499345,565666,-5430,254,60,-225,-170,-156,104,448,-164
727,2,2022-09-30T19:56:41.507646,565673,-5430,254,60,-225,-170,-156,104,448,-164
728,2,2022-09-30T19:56:41.515812,565683,-5419,249,64,-196,-226,-87,104,448,-164
729,2,2022-09-30T19:56:41.523199,565689,-5419,249,64,-196,-226,-87,104,448,-164
730,2,2022-09-30T19:56:41.531013,565698,-5419,249,64,-196,-226,-87,104,448,-164
731,2,2022-09-30T19:56:41.539243,565706,-5418,251,57,-176,-221,-17,104,448,-164
732,2,2022-09-30T19:56:41.546076,565712,-5418,251,57,-176,-221,-17,104,448,-164
733,2,2022-09-30T19:56:41.552042,565719,-5418,251,57,-176,-221,-17,104,448,-164
734,2,2022-09-30T19:56:41.560776,565728,-5417,253,56,-181,-146,-9,104,448,-164
735,2,2022-09-30T19:56:41.566787,565734,-5417,253,56,-181,-146,-9,104,448,-164
736,2,2022-09-30T19:56:41.575696,565741,-5417,253,56,-181,-146,-9,104,448,-164
737,2,2022-09-30T19:56:41.582923,565749,-5423,253,53,-208,-96,-34,104,448,-164
738,2,2022-09-30T19:56:41.614118,565775,-5432,255,55,-238,-115,-68,104,448,-164
739,2,2022-09-30T19:56:41.627531,565794,-5429,254,56,-258,-152,-78,100,446,-162
740,2,2022-09-30T19:56:41.639236,565807,-5428,247,51,-257,-166,-87,100,446,-162
741,2,2022-09-30T19:56:41.649674,565817,-5428,247,51,-257,-166,-87,100,446,-162
742,2,2022-09-30T19:56:41.661920,565829,-5430,240,47,-253,-148,-85,100,446,-162
743,2,2022-09-30T19:56:41.669377,565836,-5430,240,47,-253,-148,-85,100,446,-162
744,2,2022-09-30T19:56:41.677489,565844,-5438,239,43,-194,-149,-72,100,446,-162
745,2,2022-09-30T19:56:41.686573,565854,-5438,239,43,-194,-149,-72,100,446,-162
746,2,2022-09-30T19:56:41.694818,565861,-5438,239,43,-194,-149,-72,100,446,-162
747,2,2022-09-30T19:56:41.701460,565869,-5422,244,49,-89,-249,-32,100,446,-162
748,2,2022-09-30T19:56:41.709277,565876,-5422,244,49,-89,-249,-32,100,446,-162
749,2,2022-09-30T19:56:41.716977,565884,-5428,246,48,-17,-299,-13,100,446,-162
750,2,2022-09-30T19:56:41.725941,565893,-5428,246,48,-17,-299,-13,100,446,-162
751,2,2022-09-30T19:56:41.734268,565902,-5428,246,48,-17,-299,-13,100,446,-162
752,2,2022-09-30T19:56:41.743374,565910,-5431,250,58,-24,-300,-31,84,446,-158
753,2,2022-09-30T19:56:41.753532,565920,-5431,250,58,-24,-300,-31,84,446,-158
754,2,2022-09-30T19:56:41.761796,565928,-5427,252,58,-48,-287,-29,84,446,-158
755,2,2022-09-30T19:56:41.769723,565937,-5427,252,58,-48,-287,-29,84,446,-158
756,2,2022-09-30T19:56:41.779024,565946,-5429,252,60,-50,-289,-3,84,446,-158
757,2,2022-09-30T19:56:41.791383,565958,-5429,252,60,-50,-289,-3,84,446,-158
758,2,2022-09-30T19:56:41.799909,565966,-5423,262,59,-58,-280,25,84,446,-158
759,2,2022-09-30T19:56:41.807693,565975,-5423,262,59,-58,-280,25,84,446,-158
760,2,2022-09-30T19:56:41.815994,565983,-5420,263,58,-92,-266,14,84,446,-158
761,2,2022-09-30T19:56:41.823912,565991,-5420,263,58,-92,-266,14,84,446,-158
762,2,2022-09-30T19:56:41.832925,565999,-5420,263,58,-92,-266,14,84,446,-158
763,2,2022-09-30T19:56:41.841441,566008,-5423,265,63,-146,-249,-6,84,446,-158
764,2,2022-09-30T19:56:41.849023,566014,-5423,265,63,-146,-249,-6,84,446,-158
765,2,2022-09-30T19:56:41.857451,566025,-5423,265,63,-146,-249,-6,91,441,-165
766,2,2022-09-30T19:56:41.863798,566031,-5423,265,63,-146,-249,-6,91,441,-165
767,2,2022-09-30T19:56:41.871882,566039,-5423,265,63,-146,-249,-6,91,441,-165
768,2,2022-09-30T19:56:41.879790,566046,-5426,265,54,-289,-235,-42,91,441,-165
769,2,2022-09-30T19:56:41.889299,566056,-5426,265,54,-289,-235,-42,91,441,-165
770,2,2022-09-30T19:56:41.897327,566065,-5428,259,60,-331,-248,-63,91,441,-165
771,2,2022-09-30T19:56:41.903784,566071,-5428,259,60,-331,-248,-63,91,441,-165
772,2,2022-09-30T19:56:41.910386,566077,-5428,259,60,-331,-248,-63,91,441,-165
773,2,2022-09-30T19:56:41.918384,566085,-5423,254,57,-344,-249,-58,91,441,-165
774,2,2022-09-30T19:56:41.926082,566093,-5423,254,57,-344,-249,-58,91,441,-165
775,2,2022-09-30T19:56:41.931835,566099,-5423,254,57,-344,-249,-58,91,441,-165
776,2,2022-09-30T19:56:41.939597,566107,-5425,251,55,-324,-235,-39,91,441,-165
777,2,2022-09-30T19:56:41.946583,566115,-5425,251,55,-324,-235,-39,91,441,-165
778,2,2022-09-30T19:56:41.952740,566121,-5425,251,55,-324,-235,-39,91,441,-165
779,2,2022-09-30T19:56:41.958062,566126,-5426,254,57,-279,-227,-18,91,441,-165
780,2,2022-09-30T19:56:41.964609,566132,-5426,254,57,-279,-227,-18,91,441,-165
781,2,2022-09-30T19:56:41.969648,566137,-5426,254,57,-279,-227,-18,91,441,-165
782,2,2022-09-30T19:56:41.975810,566144,-5426,259,57,-250,-239,-14,90,440,-162
783,2,2022-09-30T19:56:41.981387,566149,-5426,259,57,-250,-239,-14,90,440,-162
784,2,2022-09-30T19:56:41.988334,566155,-5426,259,57,-250,-239,-14,90,440,-162
785,2,2022-09-30T19:56:41.995105,566163,-5426,259,57,-250,-239,-14,90,440,-162
786,2,2022-09-30T19:56:42.000189,566168,-5430,257,61,-243,-244,-41,90,440,-162
787,2,2022-09-30T19:56:42.007089,566174,-5430,257,61,-243,-244,-41,90,440,-162
788,2,2022-09-30T19:56:42.013605,566181,-5430,257,61,-243,-244,-41,90,440,-162
789,2,2022-09-30T19:56:42.018777,566187,-5421,252,56,-226,-271,-59,90,440,-162
790,2,2022-09-30T19:56:42.025996,566194,-5421,252,56,-226,-271,-59,90,440,-162
791,2,2022-09-30T19:56:42.032293,566200,-5421,252,56,-226,-271,-59,90,440,-162
792,2,2022-09-30T19:56:42.037310,566205,-5424,249,55,-226,-301,-46,90,440,-162
793,2,2022-09-30T19:56:42.044032,566211,-5424,249,55,-226,-301,-46,90,440,-162
794,2,2022-09-30T19:56:42.049373,566217,-5424,249,55,-226,-301,-46,90,440,-162
795,2,2022-09-30T19:56:42.056025,566223,-5433,248,53,-227,-304,-18,90,440,-162
796,2,2022-09-30T19:56:42.062628,566230,-5433,248,53,-227,-304,-18,90,440,-162
797,2,2022-09-30T19:56:42.069056,566237,-5433,248,53,-227,-304,-18,90,440,-162
798,2,2022-09-30T19:56:42.075154,566243,-5423,252,55,-226,-319,25,90,440,-162
799,2,2022-09-30T19:56:42.080623,566248,-5423,252,55,-226,-319,25,90,440,-162
800,2,2022-09-30T19:56:42.086547,566254,-5423,252,55,-226,-319,25,90,440,-162
801,2,2022-09-30T19:56:42.093060,566260,-5423,252,55,-226,-319,25,90,440,-162
802,2,2022-09-30T19:56:42.098580,566266,-5424,257,54,-230,-342,82,90,442,-166
803,2,2022-09-30T19:56:42.107186,566275,-5424,257,54,-230,-342,82,90,442,-166
804,2,2022-09-30T19:56:42.113546,566281,-5424,257,54,-230,-342,82,90,442,-166
805,2,2022-09-30T19:56:42.119107,566286,-5420,252,58,-227,-340,92,90,442,-166
806,2,2022-09-30T19:56:42.126626,566294,-5420,252,58,-227,-340,92,90,442,-166
807,2,2022-09-30T19:56:42.133102,566300,-5420,252,58,-227,-340,92,90,442,-166
808,2,2022-09-30T19:56:42.138320,566306,-5421,254,58,-224,-305,58,90,442,-166
809,2,2022-09-30T19:56:42.145096,566312,-5421,254,58,-224,-305,58,90,442,-166
810,2,2022-09-30T19:56:42.150311,566318,-5421,254,58,-224,-305,58,90,442,-166
811,2,2022-09-30T19:56:42.157156,566324,-5422,258,62,-228,-259,19,90,442,-166
812,2,2022-09-30T19:56:42.163107,566330,-5422,258,62,-228,-259,19,90,442,-166
813,2,2022-09-30T19:56:42.169984,566337,-5422,258,62,-228,-259,19,90,442,-166
814,2,2022-09-30T19:56:42.177140,566344,-5420,267,58,-218,-245,-12,90,442,-166
815,2,2022-09-30T19:56:42.183472,566350,-5420,267,58,-218,-245,-12,90,442,-166
816,2,2022-09-30T19:56:42.190861,566358,-5420,267,58,-218,-245,-12,90,442,-166
817,2,2022-09-30T19:56:42.198536,566366,-5435,259,59,-231,-224,-35,90,442,-166
818,2,2022-09-30T19:56:42.206495,566373,-5435,259,59,-231,-224,-35,90,442,-166
819,2,2022-09-30T19:56:42.212635,566379,-5435,259,59,-231,-224,-35,90,442,-166
820,2,2022-09-30T19:56:42.221298,566387,-5444,257,56,-266,-241,-71,90,442,-166
821,2,2022-09-30T19:56:42.230634,566397,-5444,257,56,-266,-241,-71,90,442,-166
822,2,2022-09-30T19:56:42.238164,566405,-5425,256,61,-277,-325,-86,93,443,-159
823,2,2022-09-30T19:56:42.246235,566413,-5425,256,61,-277,-325,-86,93,443,-159
824,2,2022-09-30T19:56:42.252230,566419,-5425,256,61,-277,-325,-86,93,443,-159
825,2,2022-09-30T19:56:42.259777,566427,-5413,264,59,-268,-362,-67,93,443,-159
826,2,2022-09-30T19:56:42.265662,566432,-5413,264,59,-268,-362,-67,93,443,-159
827,2,2022-09-30T19:56:42.271788,566438,-5413,264,59,-268,-362,-67,93,443,-159
828,2,2022-09-30T19:56:42.279203,566447,-5416,262,64,-262,-312,-38,93,443,-159
829,2,2022-09-30T19:56:42.288605,566456,-5416,262,64,-262,-312,-38,93,443,-159
830,2,2022-09-30T19:56:42.295596,566463,-5416,262,64,-262,-312,-38,93,443,-159
831,2,2022-09-30T19:56:42.301447,566468,-5421,264,68,-266,-252,-55,93,443,-159
832,2,2022-09-30T19:56:42.309468,566476,-5421,264,68,-266,-252,-55,93,443,-159
833,2,2022-09-30T19:56:42.316664,566483,-5421,269,64,-273,-220,-80,93,443,-159
834,2,2022-09-30T19:56:42.322567,566490,-5421,269,64,-273,-220,-80,93,443,-159
835,2,2022-09-30T19:56:42.329799,566497,-5421,269,64,-273,-220,-80,93,443,-159
836,2,2022-09-30T19:56:42.337871,566505,-5427,264,63,-299,-221,-108,93,443,-159
837,2,2022-09-30T19:56:42.343315,566511,-5427,264,63,-299,-221,-108,93,443,-159
838,2,2022-09-30T19:56:42.349569,566517,-5427,264,63,-299,-221,-108,93,443,-159
839,2,2022-09-30T19:56:42.356052,566523,-5422,262,73,-340,-242,-152,90,446,-159
840,2,2022-09-30T19:56:42.362318,566530,-5422,262,73,-340,-242,-152,90,446,-168
841,2,2022-09-30T19:56:42.368476,566537,-5422,262,73,-340,-242,-152,90,446,-168
842,2,2022-09-30T19:56:42.375192,566543,-5422,262,73,-340,-242,-152,90,446,-168
843,2,2022-09-30T19:56:42.380346,566548,-5419,250,63,-379,-244,-193,90,446,-168
844,2,2022-09-30T19:56:42.386526,566554,-5419,250,63,-379,-244,-193,90,446,-168
845,2,2022-09-30T19:56:42.392699,566560,-5419,250,63,-379,-244,-193,90,446,-168
846,2,2022-09-30T19:56:42.398066,566565,-5423,245,70,-350,-241,-218,90,446,-168
847,2,2022-09-30T19:56:42.404409,566572,-5423,245,70,-350,-241,-218,90,446,-168
848,2,2022-09-30T19:56:42.409910,566578,-5423,245,70,-350,-241,-218,90,446,-168
849,2,2022-09-30T19:56:42.416689,566584,-5414,244,62,-286,-264,-192,90,446,-168
850,2,2022-09-30T19:56:42.422586,566590,-5414,244,62,-286,-264,-192,90,446,-168
851,2,2022-09-30T19:56:42.430361,566597,-5414,244,62,-286,-264,-192,90,446,-168
852,2,2022-09-30T19:56:42.437166,566604,-5421,246,67,-248,-238,-143,90,446,-168
853,2,2022-09-30T19:56:42.442859,566610,-5421,246,67,-248,-238,-143,90,446,-168
854,2,2022-09-30T19:56:42.450124,566618,-5421,246,67,-248,-238,-143,90,446,-168
855,2,2022-09-30T19:56:42.458006,566626,-5425,246,70,-236,-202,-99,90,446,-168
856,2,2022-09-30T19:56:42.469182,566633,-5425,246,70,-236,-202,-99,90,446,-168
857,2,2022-09-30T19:56:42.475781,566643,-5425,246,70,-236,-202,-99,90,446,-168
858,2,2022-09-30T19:56:42.485565,566650,-5421,253,69,-237,-230,-53,100,444,-154
859,2,2022-09-30T19:56:42.495410,566663,-5421,253,69,-237,-230,-53,100,444,-154
860,2,2022-09-30T19:56:42.501569,566668,-5420,252,70,-243,-264,-15,100,444,-154
861,2,2022-09-30T19:56:42.510226,566677,-5420,252,70,-243,-264,-15,100,444,-154
862,2,2022-09-30T19:56:42.523080,566689,-5415,253,67,-235,-252,23,100,444,-154
863,2,2022-09-30T19:56:42.532668,566700,-5415,253,67,-235,-252,23,100,444,-154
864,2,2022-09-30T19:56:42.537818,566706,-5420,254,67,-228,-215,-7,100,444,-154
865,2,2022-09-30T19:56:42.543971,566712,-5420,254,67,-228,-215,-7,100,444,-154
866,2,2022-09-30T19:56:42.548802,566717,-5420,254,67,-228,-215,-7,100,444,-154
867,2,2022-09-30T19:56:42.554807,566723,-5420,254,67,-228,-215,-7,100,444,-154
868,2,2022-09-30T19:56:42.560042,566728,-5426,253,68,-198,-202,-37,100,444,-154
869,2,2022-09-30T19:56:42.566255,566734,-5426,253,68,-198,-202,-37,100,444,-154
870,2,2022-09-30T19:56:42.571312,566739,-5426,253,68,-198,-202,-37,100,444,-154
871,2,2022-09-30T19:56:42.577404,566745,-5427,258,69,-171,-214,-49,100,444,-154
872,2,2022-09-30T19:56:42.584629,566753,-5427,258,69,-171,-214,-49,100,444,-154
873,2,2022-09-30T19:56:42.589647,566758,-5427,258,69,-171,-214,-49,100,444,-154
874,2,2022-09-30T19:56:42.596437,566764,-5424,260,65,-159,-218,-87,86,448,-162
875,2,2022-09-30T19:56:42.602615,566769,-5424,260,65,-159,-218,-87,86,448,-162
876,2,2022-09-30T19:56:42.610298,566777,-5424,260,65,-159,-218,-87,86,448,-162
877,2,2022-09-30T19:56:42.617552,566785,-5420,256,71,-187,-227,-137,86,448,-162
878,2,2022-09-30T19:56:42.623859,566791,-5420,256,71,-187,-227,-137,86,448,-162
879,2,2022-09-30T19:56:42.631949,566799,-5420,256,71,-187,-227,-137,86,448,-162
880,2,2022-09-30T19:56:42.639951,566807,-5420,254,68,-209,-230,-173,86,448,-162
881,2,2022-09-30T19:56:42.648333,566815,-5420,254,68,-209,-230,-173,86,448,-162
882,2,2022-09-30T19:56:42.656420,566823,-5420,254,68,-209,-230,-173,86,448,-162
883,2,2022-09-30T19:56:42.662502,566830,-5424,253,66,-193,-218,-170,86,448,-162
884,2,2022-09-30T19:56:42.671079,566838,-5424,253,66,-193,-218,-170,86,448,-162
885,2,2022-09-30T19:56:42.678291,566846,-5416,253,70,-182,-218,-156,86,448,-162
886,2,2022-09-30T19:56:42.687084,566854,-5416,253,70,-182,-218,-156,86,448,-162
887,2,2022-09-30T19:56:42.692711,566860,-5416,253,70,-182,-218,-156,86,448,-162
888,2,2022-09-30T19:56:42.699873,566867,-5415,252,64,-168,-172,-135,86,448,-162
889,2,2022-09-30T19:56:42.709156,566877,-5415,252,64,-168,-172,-135,86,448,-162
890,2,2022-09-30T19:56:42.716674,566884,-5420,248,63,-174,-142,-123,93,441,-157
891,2,2022-09-30T19:56:42.723126,566890,-5420,248,63,-174,-142,-123,93,441,-157
892,2,2022-09-30T19:56:42.730434,566897,-5420,248,63,-174,-142,-123,93,441,-157
893,2,2022-09-30T19:56:42.738206,566905,-5425,247,65,-183,-155,-131,93,441,-157
894,2,2022-09-30T19:56:42.747201,566915,-5425,247,65,-183,-155,-131,93,441,-157
895,2,2022-09-30T19:56:42.754810,566922,-5425,247,65,-183,-155,-131,93,441,-157
896,2,2022-09-30T19:56:42.760717,566928,-5429,250,65,-190,-180,-119,93,441,-157
897,2,2022-09-30T19:56:42.767228,566934,-5429,250,65,-190,-180,-119,93,441,-157
898,2,2022-09-30T19:56:42.773944,566941,-5429,250,65,-190,-180,-119,93,441,-157
899,2,2022-09-30T19:56:42.779526,566947,-5422,247,59,-195,-202,-120,93,441,-157
900,2,2022-09-30T19:56:42.787004,566955,-5422,247,59,-195,-202,-120,93,441,-157
901,2,2022-09-30T19:56:42.793205,566961,-5422,247,59,-195,-202,-120,93,441,-157
902,2,2022-09-30T19:56:42.798260,566966,-5419,247,61,-185,-201,-87,93,441,-157
903,2,2022-09-30T19:56:42.805529,566973,-5419,247,61,-185,-201,-87,93,441,-157
904,2,2022-09-30T19:56:42.810598,566978,-5419,247,61,-185,-201,-87,93,441,-157
905,2,2022-09-30T19:56:42.815517,566983,-5419,247,61,-185,-201,-87,93,441,-157
906,2,2022-09-30T19:56:42.820663,566988,-5425,245,60,-144,-198,-45,93,441,-157
907,2,2022-09-30T19:56:42.825819,566993,-5425,245,60,-144,-198,-45,93,441,-157
908,2,2022-09-30T19:56:42.830880,566999,-5425,245,60,-144,-198,-45,93,441,-157
909,2,2022-09-30T19:56:42.836848,567005,-5422,245,64,-108,-219,-35,93,441,-157
910,2,2022-09-30T19:56:42.842954,567011,-5422,245,64,-108,-219,-35,93,441,-157
911,2,2022-09-30T19:56:42.848990,567017,-5422,245,64,-108,-219,-35,93,441,-157
912,2,2022-09-30T19:56:42.855068,567023,-5422,245,64,-108,-219,-35,93,441,-157
913,2,2022-09-30T19:56:42.860829,567028,-5417,250,64,-87,-223,-61,93,455,-163
914,2,2022-09-30T19:56:42.869548,567036,-5417,250,64,-87,-223,-61,93,455,-163
915,2,2022-09-30T19:56:42.876913,567044,-5411,254,60,-92,-196,-62,93,455,-163
916,2,2022-09-30T19:56:42.883374,567050,-5411,254,60,-92,-196,-62,93,455,-163
917,2,2022-09-30T19:56:42.889038,567056,-5411,254,60,-92,-196,-62,93,455,-163
918,2,2022-09-30T19:56:42.896390,567063,-5411,254,60,-92,-196,-62,93,455,-163
919,2,2022-09-30T19:56:42.902417,567069,-5419,257,61,-111,-138,-47,93,455,-163
920,2,2022-09-30T19:56:42.912625,567079,-5419,257,61,-111,-138,-47,93,455,-163
921,2,2022-09-30T19:56:42.920157,567088,-5443,253,64,-135,-100,-27,93,455,-163
922,2,2022-09-30T19:56:42.928370,567095,-5443,253,64,-135,-100,-27,93,455,-163
923,2,2022-09-30T19:56:42.935956,567103,-5443,253,64,-135,-100,-27,93,455,-163
924,2,2022-09-30T19:56:42.941901,567109,-5439,253,63,-146,-157,-17,93,455,-163
925,2,2022-09-30T19:56:42.950611,567117,-5439,253,63,-146,-157,-17,93,455,-163
926,2,2022-09-30T19:56:42.958315,567124,-5428,252,55,-101,-247,5,93,455,-163
927,2,2022-09-30T19:56:42.964511,567132,-5428,252,55,-101,-247,5,93,455,-163
928,2,2022-09-30T19:56:42.972264,567140,-5428,252,55,-101,-247,5,93,455,-163
929,2,2022-09-30T19:56:42.979698,567147,-5423,257,66,-54,-288,44,85,435,-169
930,2,2022-09-30T19:56:42.987842,567154,-5423,257,66,-54,-288,44,85,435,-169
931,2,2022-09-30T19:56:42.993876,567161,-5423,257,66,-54,-288,44,85,435,-169
932,2,2022-09-30T19:56:43.001178,567169,-5421,261,65,-18,-278,22,85,435,-169
933,2,2022-09-30T19:56:43.009607,567177,-5421,261,65,-18,-278,22,85,435,-169
934,2,2022-09-30T19:56:43.017022,567184,-5423,264,65,-22,-270,-47,85,435,-169
935,2,2022-09-30T19:56:43.023111,567190,-5423,264,65,-22,-270,-47,85,435,-169
936,2,2022-09-30T19:56:43.029662,567197,-5423,264,65,-22,-270,-47,85,435,-169
937,2,2022-09-30T19:56:43.036147,567204,-5423,267,70,-63,-245,-115,85,435,-169
938,2,2022-09-30T19:56:43.041494,567209,-5423,267,70,-63,-245,-115,85,435,-169
939,2,2022-09-30T19:56:43.047396,567216,-5423,267,70,-63,-245,-115,85,435,-169
940,2,2022-09-30T19:56:43.054264,567222,-5423,267,70,-63,-245,-115,85,435,-169
941,2,2022-09-30T19:56:43.060009,567228,-5418,267,67,-142,-237,-171,85,435,-169
942,2,2022-09-30T19:56:43.066321,567234,-5418,267,67,-142,-237,-171,85,435,-169
943,2,2022-09-30T19:56:43.071696,567239,-5418,267,67,-142,-237,-171,85,435,-169
944,2,2022-09-30T19:56:43.078118,567245,-5419,260,66,-226,-216,-205,85,435,-169
945,2,2022-09-30T19:56:43.084376,567252,-5419,260,66,-226,-216,-205,85,435,-169
946,2,2022-09-30T19:56:43.089612,567258,-5419,260,66,-226,-216,-205,85,435,-169
947,2,2022-09-30T19:56:43.095994,567264,-5419,260,66,-226,-216,-205,85,435,-169
948,2,2022-09-30T19:56:43.101108,567269,-5424,254,65,-289,-193,-184,98,450,-164
949,2,2022-09-30T19:56:43.107974,567275,-5424,254,65,-289,-193,-184,98,450,-164
950,2,2022-09-30T19:56:43.114599,567282,-5424,254,65,-289,-193,-184,98,450,-164
951,2,2022-09-30T19:56:43.119752,567287,-5427,249,67,-281,-210,-128,98,450,-164
952,2,2022-09-30T19:56:43.126132,567293,-5427,249,67,-281,-210,-128,98,450,-164
953,2,2022-09-30T19:56:43.131323,567299,-5427,249,67,-281,-210,-128,98,450,-164
954,2,2022-09-30T19:56:43.137352,567305,-5416,247,64,-246,-236,-79,98,450,-164
955,2,2022-09-30T19:56:43.143693,567311,-5416,247,64,-246,-236,-79,98,450,-164
956,2,2022-09-30T19:56:43.150277,567318,-5416,247,64,-246,-236,-79,98,450,-164
957,2,2022-09-30T19:56:43.156685,567324,-5422,245,62,-225,-199,-100,98,450,-164
958,2,2022-09-30T19:56:43.163557,567331,-5422,245,62,-225,-199,-100,98,450,-164
959,2,2022-09-30T19:56:43.168879,567336,-5422,245,62,-225,-199,-100,98,450,-164
960,2,2022-09-30T19:56:43.176496,567344,-5422,245,62,-225,-199,-100,98,450,-164
961,2,2022-09-30T19:56:43.182115,567350,-5429,242,63,-205,-191,-145,98,450,-164
962,2,2022-09-30T19:56:43.188676,567356,-5429,242,63,-205,-191,-145,98,450,-164
963,2,2022-09-30T19:56:43.195584,567363,-5429,242,63,-205,-191,-145,98,450,-164
964,2,2022-09-30T19:56:43.201693,567368,-5428,241,62,-141,-241,-136,98,450,-164
965,2,2022-09-30T19:56:43.207865,567374,-5428,241,62,-141,-241,-136,98,450,-164
966,2,2022-09-30T19:56:43.214136,567382,-5428,241,62,-141,-241,-136,98,450,-164
967,2,2022-09-30T19:56:43.222242,567389,-5424,250,66,-65,-266,-100,92,440,-158
968,2,2022-09-30T19:56:43.229712,567397,-5424,250,66,-65,-266,-100,92,440,-158
969,2,2022-09-30T19:56:43.237719,567405,-5416,256,63,-34,-253,-62,92,440,-158
970,2,2022-09-30T19:56:43.244961,567411,-5416,256,63,-34,-253,-62,92,440,-158
971,2,2022-09-30T19:56:43.252400,567419,-5416,256,63,-34,-253,-62,92,440,-158
972,2,2022-09-30T19:56:43.261617,567429,-5416,256,67,-58,-207,-50,92,440,-158
973,2,2022-09-30T19:56:43.269079,567436,-5416,256,67,-58,-207,-50,92,440,-158
974,2,2022-09-30T19:56:43.277260,567444,-5425,256,72,-86,-201,-44,92,440,-158
975,2,2022-09-30T19:56:43.283437,567450,-5425,256,72,-86,-201,-44,92,440,-158
976,2,2022-09-30T19:56:43.291195,567458,-5425,256,72,-86,-201,-44,92,440,-158
977,2,2022-09-30T19:56:43.298500,567465,-5426,250,61,-96,-237,-51,92,440,-158
978,2,2022-09-30T19:56:43.307096,567473,-5426,250,61,-96,-237,-51,92,440,-158
979,2,2022-09-30T19:56:43.312829,567480,-5426,250,61,-96,-237,-51,92,440,-158
980,2,2022-09-30T19:56:43.320241,567487,-5426,249,64,-98,-255,-68,92,440,-158
981,2,2022-09-30T19:56:43.326532,567493,-5426,249,64,-98,-255,-68,92,440,-158
982,2,2022-09-30T19:56:43.332740,567500,-5426,249,64,-98,-255,-68,92,440,-158
983,2,2022-09-30T19:56:43.339918,567507,-5424,255,74,-80,-245,-59,92,454,-162
984,2,2022-09-30T19:56:43.347447,567515,-5424,255,74,-80,-245,-59,92,454,-162
985,2,2022-09-30T19:56:43.353296,567521,-5424,255,74,-80,-245,-59,92,454,-162
986,2,2022-09-30T19:56:43.358555,567527,-5422,257,66,-39,-246,-33,92,454,-162
987,2,2022-09-30T19:56:43.364051,567531,-5422,257,66,-39,-246,-33,92,454,-162
988,2,2022-09-30T19:56:43.369591,567537,-5422,257,66,-39,-246,-33,92,454,-162
989,2,2022-09-30T19:56:43.375997,567544,-5422,257,66,-39,-246,-33,92,454,-162
990,2,2022-09-30T19:56:43.381220,567548,-5421,259,67,-5,-269,-52,92,454,-162
991,2,2022-09-30T19:56:43.387512,567555,-5421,259,67,-5,-269,-52,92,454,-162
992,2,2022-09-30T19:56:43.392445,567561,-5421,259,67,-5,-269,-52,92,454,-162
993,2,2022-09-30T19:56:43.399416,567567,-5422,264,70,-19,-286,-78,92,454,-162
994,2,2022-09-30T19:56:43.404543,567572,-5422,264,70,-19,-286,-78,92,454,-162
995,2,2022-09-30T19:56:43.409546,567577,-5422,264,70,-19,-286,-78,92,454,-162
996,2,2022-09-30T19:56:43.415693,567583,-5422,264,70,-19,-286,-78,92,454,-162
997,2,2022-09-30T19:56:43.420449,567588,-5416,268,66,-53,-276,-120,92,454,-162
998,2,2022-09-30T19:56:43.426606,567595,-5416,268,66,-53,-276,-120,92,454,-162
999,2,2022-09-30T19:56:43.432430,567601,-5416,268,66,-53,-276,-120,92,454,-162
1000,2,2022-09-30T19:56:43.438574,567607,-5411,266,67,-137,-236,-127,92,454,-162
1001,2,2022-09-30T19:56:43.445394,567613,-5411,266,67,-137,-236,-127,92,454,-162
1002,2,2022-09-30T19:56:43.450411,567618,-5411,266,67,-137,-236,-127,92,454,-162
1003,2,2022-09-30T19:56:43.456803,567624,-5416,262,72,-214,-183,-113,92,454,-162
1004,2,2022-09-30T19:56:43.463214,567630,-5416,262,72,-214,-183,-113,92,454,-162
1005,2,2022-09-30T19:56:43.469582,567638,-5416,262,72,-214,-183,-113,92,454,-162
1006,2,2022-09-30T19:56:43.475845,567644,-5416,262,72,-214,-183,-113,92,454,-162
1007,2,2022-09-30T19:56:43.481611,567649,-5418,257,65,-279,-151,-100,92,440,-158
1008,2,2022-09-30T19:56:43.487907,567656,-5418,257,65,-279,-151,-100,92,440,-158
1009,2,2022-09-30T19:56:43.494514,567662,-5418,257,65,-279,-151,-100,92,440,-158
1010,2,2022-09-30T19:56:43.500418,567667,-5414,252,67,-319,-126,-92,92,440,-158
1011,2,2022-09-30T19:56:43.507093,567674,-5414,252,67,-319,-126,-92,92,440,-158
1012,2,2022-09-30T19:56:43.512592,567680,-5414,252,67,-319,-126,-92,92,440,-158
1013,2,2022-09-30T19:56:43.519489,567687,-5418,247,65,-301,-107,-71,92,440,-158
1014,2,2022-09-30T19:56:43.526175,567694,-5418,247,65,-301,-107,-71,92,440,-158
1015,2,2022-09-30T19:56:43.532207,567700,-5418,247,65,-301,-107,-71,92,440,-158
1016,2,2022-09-30T19:56:43.540467,567708,-5415,243,63,-234,-105,-35,92,440,-158
1017,2,2022-09-30T19:56:43.548140,567715,-5415,243,63,-234,-105,-35,92,440,-158
1018,2,2022-09-30T19:56:43.554066,567721,-5415,243,63,-234,-105,-35,92,440,-158
1019,2,2022-09-30T19:56:43.565771,567733,-5429,245,57,-150,-97,-44,92,440,-158
1020,2,2022-09-30T19:56:43.573370,567741,-5429,245,57,-150,-97,-44,92,440,-158
1021,2,2022-09-30T19:56:43.579784,567748,-5428,255,59,-81,-106,-39,92,440,-158
1022,2,2022-09-30T19:56:43.587486,567754,-5428,255,59,-81,-106,-39,92,440,-158
1023,2,2022-09-30T19:56:43.593153,567760,-5428,255,59,-81,-106,-39,92,440,-158
1024,2,2022-09-30T19:56:43.600465,567768,-5421,257,50,-62,-119,-39,96,440,-162
1025,2,2022-09-30T19:56:43.606425,567774,-5421,257,50,-62,-119,-39,96,440,-162
1026,2,2022-09-30T19:56:43.612213,567780,-5421,257,50,-62,-119,-39,96,440,-162
1027,2,2022-09-30T19:56:43.619189,567786,-5445,261,57,-93,-103,-56,96,440,-162
1028,2,2022-09-30T19:56:43.629544,567796,-5445,261,57,-93,-103,-56,96,440,-162
1029,2,2022-09-30T19:56:43.641405,567808,-5454,253,60,-112,-161,-70,96,440,-162
1030,2,2022-09-30T19:56:43.647859,567815,-5454,253,60,-112,-161,-70,96,440,-162
1031,2,2022-09-30T19:56:43.654008,567821,-5454,253,60,-112,-161,-70,96,440,-162
1032,2,2022-09-30T19:56:43.664662,567831,-5430,257,54,-104,-285,-62,96,440,-162
1033,2,2022-09-30T19:56:43.674299,567841,-5430,257,54,-104,-285,-62,96,440,-162
1034,2,2022-09-30T19:56:43.682434,567849,-5417,260,61,-46,-338,-26,96,440,-162
1035,2,2022-09-30T19:56:43.694025,567861,-5417,260,61,-46,-338,-26,96,440,-162
1036,2,2022-09-30T19:56:43.703978,567870,-5419,267,67,-8,-322,-23,96,440,-162
1037,2,2022-09-30T19:56:43.716140,567883,-5419,267,67,-8,-322,-23,96,440,-162
1038,2,2022-09-30T19:56:43.722644,567889,-5421,268,74,-6,-277,-49,85,445,-161
1039,2,2022-09-30T19:56:43.732759,567899,-5421,268,74,-6,-277,-49,85,445,-161
1040,2,2022-09-30T19:56:43.744580,567912,-5430,269,69,-47,-254,-98,85,445,-161
1041,2,2022-09-30T19:56:43.752607,567919,-5430,269,69,-47,-254,-98,85,445,-161
1042,2,2022-09-30T19:56:43.762212,567929,-5421,267,68,-132,-264,-151,85,445,-161
1043,2,2022-09-30T19:56:43.772090,567939,-5421,267,68,-132,-264,-151,85,445,-161
1044,2,2022-09-30T19:56:43.778957,567947,-5417,264,64,-200,-263,-217,85,445,-161
1045,2,2022-09-30T19:56:43.786545,567953,-5417,264,64,-200,-263,-217,85,445,-161
1046,2,2022-09-30T19:56:43.792516,567960,-5417,264,64,-200,-263,-217,85,445,-161
1047,2,2022-09-30T19:56:43.798967,567967,-5415,260,69,-245,-231,-214,85,445,-161
1048,2,2022-09-30T19:56:43.806208,567973,-5415,260,69,-245,-231,-214,85,445,-161
1049,2,2022-09-30T19:56:43.812168,567980,-5415,260,69,-245,-231,-214,85,445,-161
1050,2,2022-09-30T19:56:43.818773,567987,-5425,254,71,-256,-196,-153,85,445,-161
1051,2,2022-09-30T19:56:43.825740,567994,-5425,254,71,-256,-196,-153,85,445,-161
1052,2,2022-09-30T19:56:43.831321,567999,-5425,254,71,-256,-196,-153,85,445,-161
1053,2,2022-09-30T19:56:43.838822,568006,-5416,249,73,-230,-189,-87,87,443,-165
1054,2,2022-09-30T19:56:43.847068,568014,-5416,249,73,-230,-189,-87,87,443,-165
1055,2,2022-09-30T19:56:43.853162,568020,-5416,249,73,-230,-189,-87,87,443,-165
1056,2,2022-09-30T19:56:43.859779,568028,-5418,248,64,-229,-151,-81,87,443,-165
1057,2,2022-09-30T19:56:43.866495,568034,-5418,248,64,-229,-151,-81,87,443,-165
1058,2,2022-09-30T19:56:43.872006,568040,-5418,248,64,-229,-151,-81,87,443,-165
1059,2,2022-09-30T19:56:43.877212,568045,-5427,252,59,-264,-130,-111,87,443,-165
1060,2,2022-09-30T19:56:43.883259,568051,-5427,252,59,-264,-130,-111,87,443,-165
1061,2,2022-09-30T19:56:43.889699,568057,-5427,252,59,-264,-130,-111,87,443,-165
1062,2,2022-09-30T19:56:43.898609,568067,-5429,249,59,-268,-152,-111,87,443,-165
1063,2,2022-09-30T19:56:43.904021,568072,-5429,249,59,-268,-152,-111,87,443,-165
1064,2,2022-09-30T19:56:43.910741,568077,-5429,249,59,-268,-152,-111,87,443,-165
1065,2,2022-09-30T19:56:43.918017,568086,-5427,251,64,-234,-204,-78,87,443,-165
1066,2,2022-09-30T19:56:43.923262,568091,-5427,251,64,-234,-204,-78,87,443,-165
1067,2,2022-09-30T19:56:43.929586,568097,-5427,251,64,-234,-204,-78,87,443,-165
1068,2,2022-09-30T19:56:43.937673,568104,-5427,251,64,-234,-204,-78,87,443,-165
1069,2,2022-09-30T19:56:43.943040,568111,-5423,255,60,-209,-204,-40,87,443,-165
1070,2,2022-09-30T19:56:43.951300,568119,-5423,255,60,-209,-204,-40,87,443,-165
1071,2,2022-09-30T19:56:43.960369,568126,-5424,257,63,-211,-183,-20,98,440,-164
1072,2,2022-09-30T19:56:43.969839,568137,-5424,257,63,-211,-183,-20,98,440,-164
1073,2,2022-09-30T19:56:43.976830,568144,-5424,257,63,-211,-183,-20,98,440,-164
1074,2,2022-09-30T19:56:43.983501,568151,-5431,257,62,-199,-173,-3,98,440,-164
1075,2,2022-09-30T19:56:43.994177,568162,-5431,257,62,-199,-173,-3,98,440,-164
1076,2,2022-09-30T19:56:44.000746,568169,-5434,257,59,-190,-207,-25,98,440,-164
1077,2,2022-09-30T19:56:44.011710,568175,-5434,257,59,-190,-207,-25,98,440,-164
1078,2,2022-09-30T19:56:44.017096,568184,-5434,257,59,-190,-207,-25,98,440,-164
1079,2,2022-09-30T19:56:44.023353,568192,-5426,259,62,-204,-253,-76,98,440,-164
1080,2,2022-09-30T19:56:44.033871,568200,-5426,259,62,-204,-253,-76,98,440,-164
1081,2,2022-09-30T19:56:44.039276,568207,-5427,257,57,-206,-264,-124,98,440,-164
1082,2,2022-09-30T19:56:44.048775,568216,-5427,257,57,-206,-264,-124,98,440,-164
1083,2,2022-09-30T19:56:44.055122,568222,-5427,257,57,-206,-264,-124,98,440,-164
1084,2,2022-09-30T19:56:44.067189,568235,-5423,254,59,-195,-273,-138,98,440,-164
1085,2,2022-09-30T19:56:44.075375,568243,-5423,254,59,-195,-273,-138,98,440,-164
1086,2,2022-09-30T19:56:44.085745,568251,-5421,260,62,-167,-285,-113,98,440,-164
1087,2,2022-09-30T19:56:44.096173,568262,-5421,260,62,-167,-285,-113,98,440,-164
1088,2,2022-09-30T19:56:44.104158,568271,-5414,260,69,-165,-281,-87,84,438,-166
1089,2,2022-09-30T19:56:44.119555,568286,-5419,256,64,-197,-252,-75,84,438,-166
1090,2,2022-09-30T19:56:44.127739,568295,-5419,256,64,-197,-252,-75,84,438,-166
1091,2,2022-09-30T19:56:44.135624,568302,-5419,256,64,-197,-252,-75,84,438,-166
1092,2,2022-09-30T19:56:44.143286,568310,-5425,257,62,-242,-213,-94,84,438,-166
1093,2,2022-09-30T19:56:44.154006,568322,-5425,257,62,-242,-213,-94,84,438,-166
1094,2,2022-09-30T19:56:44.163655,568327,-5425,258,63,-263,-204,-97,84,438,-166
1095,2,2022-09-30T19:56:44.173401,568339,-5425,258,63,-263,-204,-97,84,438,-166
1096,2,2022-09-30T19:56:44.181761,568348,-5422,255,59,-260,-209,-77,84,438,-166
1097,2,2022-09-30T19:56:44.194616,568361,-5422,255,59,-260,-209,-77,84,438,-166
1098,2,2022-09-30T19:56:44.202075,568370,-5426,254,66,-259,-220,-52,84,438,-166
1099,2,2022-09-30T19:56:44.209431,568376,-5426,254,66,-259,-220,-52,84,438,-166
1100,2,2022-09-30T19:56:44.216399,568384,-5426,254,66,-259,-220,-52,84,438,-166
1101,2,2022-09-30T19:56:44.223336,568391,-5427,252,68,-260,-246,-45,89,447,-161
1102,2,2022-09-30T19:56:44.230324,568397,-5427,252,68,-260,-246,-45,89,447,-161
1103,2,2022-09-30T19:56:44.242198,568410,-5424,251,63,-270,-273,-64,89,447,-161
1104,2,2022-09-30T19:56:44.248665,568416,-5424,251,63,-270,-273,-64,89,447,-161
1105,2,2022-09-30T19:56:44.255657,568423,-5424,251,63,-270,-273,-64,89,447,-161
1106,2,2022-09-30T19:56:44.263309,568430,-5423,253,63,-273,-276,-78,89,447,-161
1107,2,2022-09-30T19:56:44.273658,568441,-5423,253,63,-273,-276,-78,89,447,-161
1108,2,2022-09-30T19:56:44.280068,568448,-5417,256,66,-247,-278,-71,89,447,-161
1109,2,2022-09-30T19:56:44.289783,568457,-5417,256,66,-247,-278,-71,89,447,-161
1110,2,2022-09-30T19:56:44.299774,568466,-5419,256,68,-240,-263,-73,89,447,-161
1111,2,2022-09-30T19:56:44.305819,568473,-5419,256,68,-240,-263,-73,89,447,-161
1112,2,2022-09-30T19:56:44.314226,568482,-5419,256,68,-240,-263,-73,89,447,-161
1113,2,2022-09-30T19:56:44.320390,568488,-5415,256,61,-250,-206,-71,89,447,-161
1114,2,2022-09-30T19:56:44.326585,568495,-5415,256,61,-250,-206,-71,89,447,-161
1115,2,2022-09-30T19:56:44.332189,568500,-5415,256,61,-250,-206,-71,89,447,-161
1116,2,2022-09-30T19:56:44.338409,568506,-5412,256,66,-298,-147,-67,92,438,-156
1117,2,2022-09-30T19:56:44.345423,568513,-5412,256,66,-298,-147,-67,92,438,-156
1118,2,2022-09-30T19:56:44.350503,568518,-5412,256,66,-298,-147,-67,92,438,-156
1119,2,2022-09-30T19:56:44.357202,568525,-5412,256,66,-298,-147,-67,92,438,-156
1120,2,2022-09-30T19:56:44.362265,568530,-5439,249,64,-333,-110,-67,92,438,-156
1121,2,2022-09-30T19:56:44.369145,568537,-5439,249,64,-333,-110,-67,92,438,-156
1122,2,2022-09-30T19:56:44.375249,568543,-5439,249,64,-333,-110,-67,92,438,-156
1123,2,2022-09-30T19:56:44.380268,568548,-5443,245,63,-345,-171,-70,92,438,-156
1124,2,2022-09-30T19:56:44.386918,568555,-5443,245,63,-345,-171,-70,92,438,-156
1125,2,2022-09-30T19:56:44.391794,568560,-5443,245,63,-345,-171,-70,92,438,-156
1126,2,2022-09-30T19:56:44.397970,568566,-5426,245,61,-296,-290,-40,92,438,-156
1127,2,2022-09-30T19:56:44.403912,568571,-5426,245,61,-296,-290,-40,92,438,-156
1128,2,2022-09-30T19:56:44.410314,568579,-5426,245,61,-296,-290,-40,92,438,-156
1129,2,2022-09-30T19:56:44.416706,568585,-5426,245,61,-296,-290,-40,92,438,-156
1130,2,2022-09-30T19:56:44.422737,568590,-5414,253,63,-228,-337,-9,92,438,-156
1131,2,2022-09-30T19:56:44.430181,568598,-5414,253,63,-228,-337,-9,92,438,-156
1132,2,2022-09-30T19:56:44.437406,568604,-5414,253,63,-228,-337,-9,92,438,-156
1133,2,2022-09-30T19:56:44.442870,568610,-5415,251,66,-182,-294,-5,92,438,-156
1134,2,2022-09-30T19:56:44.449307,568616,-5415,251,66,-182,-294,-5,92,438,-156
1135,2,2022-09-30T19:56:44.455386,568624,-5415,251,66,-182,-294,-5,92,438,-156
1136,2,2022-09-30T19:56:44.460884,568629,-5419,254,74,-154,-255,-36,86,446,-160
1137,2,2022-09-30T19:56:44.469016,568637,-5419,254,74,-154,-255,-36,86,446,-160
1138,2,2022-09-30T19:56:44.475944,568644,-5419,254,74,-154,-255,-36,86,446,-160
1139,2,2022-09-30T19:56:44.481736,568649,-5422,257,76,-150,-234,-57,86,446,-160
1140,2,2022-09-30T19:56:44.489054,568656,-5422,257,76,-150,-234,-57,86,446,-160
1141,2,2022-09-30T19:56:44.496136,568664,-5422,257,76,-150,-234,-57,86,446,-160
1142,2,2022-09-30T19:56:44.501515,568669,-5422,260,68,-187,-238,-74,86,446,-160
1143,2,2022-09-30T19:56:44.508156,568676,-5422,260,68,-187,-238,-74,86,446,-160
1144,2,2022-09-30T19:56:44.513402,568681,-5422,260,68,-187,-238,-74,86,446,-160
1145,2,2022-09-30T19:56:44.520283,568688,-5416,259,64,-252,-233,-99,86,446,-160
1146,2,2022-09-30T19:56:44.527846,568695,-5416,259,64,-252,-233,-99,86,446,-160
1147,2,2022-09-30T19:56:44.533803,568700,-5416,259,64,-252,-233,-99,86,446,-160
1148,2,2022-09-30T19:56:44.541631,568709,-5425,252,69,-304,-211,-82,86,446,-160
1149,2,2022-09-30T19:56:44.549357,568716,-5425,252,69,-304,-211,-82,86,446,-160
1150,2,2022-09-30T19:56:44.555776,568723,-5425,252,69,-304,-211,-82,86,446,-160
1151,2,2022-09-30T19:56:44.563722,568730,-5425,250,72,-303,-213,-56,86,446,-160
1152,2,2022-09-30T19:56:44.571907,568738,-5425,250,72,-303,-213,-56,86,446,-160
1153,2,2022-09-30T19:56:44.579672,568747,-5413,248,71,-245,-250,-12,88,450,-160
1154,2,2022-09-30T19:56:44.587856,568755,-5413,248,71,-245,-250,-12,88,450,-160
1155,2,2022-09-30T19:56:44.594126,568761,-5413,248,71,-245,-250,-12,88,450,-160
1156,2,2022-09-30T19:56:44.601717,568769,-5420,245,70,-203,-237,-16,88,450,-160
1157,2,2022-09-30T19:56:44.610915,568778,-5420,245,70,-203,-237,-16,88,450,-160
1158,2,2022-09-30T19:56:44.618897,568786,-5426,251,72,-201,-208,-58,88,450,-160
1159,2,2022-09-30T19:56:44.624918,568792,-5426,251,72,-201,-208,-58,88,450,-160
1160,2,2022-09-30T19:56:44.635845,568801,-5426,251,72,-201,-208,-58,88,450,-160
1161,2,2022-09-30T19:56:44.644165,568811,-5425,252,72,-194,-185,-77,88,450,-160
1162,2,2022-09-30T19:56:44.653203,568820,-5425,252,72,-194,-185,-77,88,450,-160
1163,2,2022-09-30T19:56:44.660697,568828,-5421,259,66,-200,-200,-42,88,450,-160
1164,2,2022-09-30T19:56:44.669127,568837,-5421,259,66,-200,-200,-42,88,450,-160
1165,2,2022-09-30T19:56:44.674978,568842,-5421,259,66,-200,-200,-42,88,450,-160
1166,2,2022-09-30T19:56:44.682448,568850,-5423,263,62,-203,-192,16,88,450,-160
1167,2,2022-09-30T19:56:44.691252,568858,-5423,263,62,-203,-192,16,88,450,-160
1168,2,2022-09-30T19:56:44.698381,568865,-5422,261,62,-237,-190,44,88,450,-160
1169,2,2022-09-30T19:56:44.704218,568872,-5422,261,62,-237,-190,44,88,450,-160
1170,2,2022-09-30T19:56:44.712189,568880,-5422,261,62,-237,-190,44,88,450,-160
1171,2,2022-09-30T19:56:44.718881,568887,-5421,260,61,-272,-156,38,93,443,-159
1172,2,2022-09-30T19:56:44.726437,568894,-5421,260,61,-272,-156,38,93,443,-159
1173,2,2022-09-30T19:56:44.731724,568899,-5421,260,61,-272,-156,38,93,443,-159
1174,2,2022-09-30T19:56:44.738088,568906,-5429,257,66,-270,-169,26,93,443,-159
1175,2,2022-09-30T19:56:44.743945,568911,-5429,257,66,-270,-169,26,93,443,-159
1176,2,2022-09-30T19:56:44.750194,568919,-5429,257,66,-270,-169,26,93,443,-159
1177,2,2022-09-30T19:56:44.756405,568925,-5429,257,66,-270,-169,26,93,443,-159
1178,2,2022-09-30T19:56:44.761712,568930,-5432,253,67,-248,-190,0,93,443,-159
1179,2,2022-09-30T19:56:44.769290,568937,-5432,253,67,-248,-190,0,93,443,-159
1180,2,2022-09-30T19:56:44.774806,568942,-5432,253,67,-248,-190,0,93,443,-159
1181,2,2022-09-30T19:56:44.780300,568948,-5430,254,61,-214,-229,-36,93,443,-159
1182,2,2022-09-30T19:56:44.787866,568955,-5430,254,61,-214,-229,-36,93,443,-159
1183,2,2022-09-30T19:56:44.794152,568962,-5430,254,61,-214,-229,-36,93,443,-159
1184,2,2022-09-30T19:56:44.800899,568969,-5427,253,65,-173,-238,-68,93,443,-159
1185,2,2022-09-30T19:56:44.808326,568976,-5427,253,65,-173,-238,-68,93,443,-159
1186,2,2022-09-30T19:56:44.813943,568981,-5427,253,65,-173,-238,-68,93,443,-159
1187,2,2022-09-30T19:56:44.821666,568989,-5421,251,64,-144,-242,-98,93,443,-159
1188,2,2022-09-30T19:56:44.829903,568997,-5421,251,64,-144,-242,-98,93,443,-159
1189,2,2022-09-30T19:56:44.836974,569005,-5421,251,64,-144,-242,-98,93,443,-159
1190,2,2022-09-30T19:56:44.842401,569010,-5418,252,66,-114,-245,-130,89,447,-165
1191,2,2022-09-30T19:56:44.850656,569018,-5418,252,66,-114,-245,-130,89,447,-165
1192,2,2022-09-30T19:56:44.857506,569025,-5418,252,66,-114,-245,-130,89,447,-165
1193,2,2022-09-30T19:56:44.863239,569030,-5420,251,67,-92,-260,-129,89,447,-165
1194,2,2022-09-30T19:56:44.870492,569037,-5420,251,67,-92,-260,-129,89,447,-165
1195,2,2022-09-30T19:56:44.877049,569044,-5420,251,67,-92,-260,-129,89,447,-165
1196,2,2022-09-30T19:56:44.882925,569051,-5422,255,65,-88,-276,-107,89,447,-165
1197,2,2022-09-30T19:56:44.891125,569059,-5422,255,65,-88,-276,-107,89,447,-165
1198,2,2022-09-30T19:56:44.898007,569066,-5422,255,65,-88,-276,-107,89,447,-165
1199,2,2022-09-30T19:56:44.903752,569071,-5418,259,60,-99,-274,-71,89,447,-165
1200,2,2022-09-30T19:56:44.911447,569078,-5418,259,60,-99,-274,-71,89,447,-165
1201,2,2022-09-30T19:56:44.918605,569085,-5418,259,60,-99,-274,-71,89,447,-165
1202,2,2022-09-30T19:56:44.923827,569092,-5421,260,65,-132,-240,-38,89,447,-165
1203,2,2022-09-30T19:56:44.932499,569100,-5421,260,65,-132,-240,-38,89,447,-165
1204,2,2022-09-30T19:56:44.939781,569107,-5422,257,67,-179,-202,-19,89,447,-165
1205,2,2022-09-30T19:56:44.947526,569114,-5422,257,67,-179,-202,-19,89,447,-165
1206,2,2022-09-30T19:56:44.953967,569121,-5422,257,67,-179,-202,-19,89,447,-165
1207,2,2022-09-30T19:56:44.961041,569128,-5424,257,68,-194,-204,-12,88,442,-162
1208,2,2022-09-30T19:56:44.968557,569136,-5424,257,68,-194,-204,-12,88,442,-162
1209,2,2022-09-30T19:56:44.974199,569142,-5424,257,68,-194,-204,-12,88,442,-162
1210,2,2022-09-30T19:56:44.980856,569149,-5423,260,62,-186,-222,2,88,442,-162
1211,2,2022-09-30T19:56:44.988375,569155,-5423,260,62,-186,-222,2,88,442,-162
1212,2,2022-09-30T19:56:44.993648,569161,-5423,260,62,-186,-222,2,88,442,-162
1213,2,2022-09-30T19:56:45.000101,569167,-5426,259,64,-148,-240,0,88,442,-162
1214,2,2022-09-30T19:56:45.006074,569174,-5426,259,64,-148,-240,0,88,442,-162
1215,2,2022-09-30T19:56:45.011835,569180,-5426,259,64,-148,-240,0,88,442,-162
1216,2,2022-09-30T19:56:45.018530,569186,-5426,259,64,-148,-240,0,88,442,-162
1217,2,2022-09-30T19:56:45.024302,569192,-5423,258,70,-118,-273,-27,88,442,-162
1218,2,2022-09-30T19:56:45.033144,569200,-5423,258,70,-118,-273,-27,88,442,-162
1219,2,2022-09-30T19:56:45.040179,569207,-5422,261,70,-107,-276,-76,88,442,-162
1220,2,2022-09-30T19:56:45.048750,569216,-5422,261,70,-107,-276,-76,88,442,-162
1221,2,2022-09-30T19:56:45.054736,569222,-5422,261,70,-107,-276,-76,88,442,-162
1222,2,2022-09-30T19:56:45.061993,569229,-5414,265,69,-115,-255,-90,88,442,-162
1223,2,2022-09-30T19:56:45.070401,569237,-5414,265,69,-115,-255,-90,88,442,-162
1224,2,2022-09-30T19:56:45.077328,569244,-5414,265,69,-115,-255,-90,88,442,-162
1225,2,2022-09-30T19:56:45.084382,569250,-5412,264,70,-134,-203,-90,81,437,-157
1226,2,2022-09-30T19:56:45.091984,569259,-5412,264,70,-134,-203,-90,81,437,-157
1227,2,2022-09-30T19:56:45.099997,569268,-5432,262,77,-168,-167,-108,81,437,-157
1228,2,2022-09-30T19:56:45.108551,569276,-5432,262,77,-168,-167,-108,81,437,-157
1229,2,2022-09-30T19:56:45.114276,569281,-5432,262,77,-168,-167,-108,81,437,-157
1230,2,2022-09-30T19:56:45.122016,569289,-5434,259,70,-224,-179,-134,81,437,-157
1231,2,2022-09-30T19:56:45.131234,569298,-5434,259,70,-224,-179,-134,81,437,-157
1232,2,2022-09-30T19:56:45.138996,569306,-5434,259,70,-224,-179,-134,81,437,-157
1233,2,2022-09-30T19:56:45.145114,569312,-5415,257,70,-223,-242,-132,81,437,-157
1234,2,2022-09-30T19:56:45.154464,569322,-5415,257,70,-223,-242,-132,81,437,-157
1235,2,2022-09-30T19:56:45.162866,569330,-5416,255,75,-162,-268,-112,81,437,-157
1236,2,2022-09-30T19:56:45.169274,569336,-5416,255,75,-162,-268,-112,81,437,-157
1237,2,2022-09-30T19:56:45.175485,569342,-5416,255,75,-162,-268,-112,81,437,-157
1238,2,2022-09-30T19:56:45.183293,569351,-5415,256,76,-117,-257,-111,81,437,-157
1239,2,2022-09-30T19:56:45.189942,569357,-5415,256,76,-117,-257,-111,81,437,-157
1240,2,2022-09-30T19:56:45.196245,569363,-5415,256,76,-117,-257,-111,81,437,-157
1241,2,2022-09-30T19:56:45.204599,569371,-5416,261,71,-114,-192,-122,91,445,-163
1242,2,2022-09-30T19:56:45.214344,569381,-5416,261,71,-114,-192,-122,91,445,-163
1243,2,2022-09-30T19:56:45.221984,569389,-5419,259,73,-143,-138,-128,91,445,-163
1244,2,2022-09-30T19:56:45.231136,569398,-5419,259,73,-143,-138,-128,91,445,-163
1245,2,2022-09-30T19:56:45.238703,569406,-5419,259,73,-143,-138,-128,91,445,-163
1246,2,2022-09-30T19:56:45.244702,569412,-5418,262,70,-178,-147,-135,91,445,-163
1247,2,2022-09-30T19:56:45.251680,569418,-5418,262,70,-178,-147,-135,91,445,-163
1248,2,2022-09-30T19:56:45.258770,569426,-5418,262,70,-178,-147,-135,91,445,-163
1249,2,2022-09-30T19:56:45.265061,569433,-5422,254,63,-194,-160,-131,91,445,-163
1250,2,2022-09-30T19:56:45.271684,569439,-5422,254,63,-194,-160,-131,91,445,-163
1251,2,2022-09-30T19:56:45.279248,569447,-5428,246,64,-200,-178,-128,91,445,-163
1252,2,2022-09-30T19:56:45.287117,569455,-5428,246,64,-200,-178,-128,91,445,-163
1253,2,2022-09-30T19:56:45.294652,569460,-5428,246,64,-200,-178,-128,91,445,-163
1254,2,2022-09-30T19:56:45.301454,569469,-5424,243,68,-170,-203,-117,91,445,-163
1255,2,2022-09-30T19:56:45.308920,569477,-5424,243,68,-170,-203,-117,91,445,-163
1256,2,2022-09-30T19:56:45.314032,569482,-5424,243,68,-170,-203,-117,91,445,-163
1257,2,2022-09-30T19:56:45.319011,569487,-5410,249,64,-108,-219,-96,91,445,-163
1258,2,2022-09-30T19:56:45.325789,569494,-5410,249,64,-108,-219,-96,91,445,-163
1259,2,2022-09-30T19:56:45.331013,569499,-5410,249,64,-108,-219,-96,91,445,-163
1260,2,2022-09-30T19:56:45.338174,569506,-5410,249,64,-108,-219,-96,91,445,-163
1261,2,2022-09-30T19:56:45.343270,569511,-5419,253,75,-57,-171,-109,93,443,-161
1262,2,2022-09-30T19:56:45.350016,569518,-5419,253,75,-57,-171,-109,93,443,-161
1263,2,2022-09-30T19:56:45.355601,569523,-5419,253,75,-57,-171,-109,93,443,-161
1264,2,2022-09-30T19:56:45.362127,569530,-5424,255,68,-55,-129,-122,93,443,-161
1265,2,2022-09-30T19:56:45.368716,569536,-5424,255,68,-55,-129,-122,93,443,-161
1266,2,2022-09-30T19:56:45.374231,569542,-5424,255,68,-55,-129,-122,93,443,-161
1267,2,2022-09-30T19:56:45.380912,569548,-5428,255,67,-61,-149,-104,93,443,-161
1268,2,2022-09-30T19:56:45.387701,569555,-5428,255,67,-61,-149,-104,93,443,-161
1269,2,2022-09-30T19:56:45.393359,569562,-5428,255,67,-61,-149,-104,93,443,-161
1270,2,2022-09-30T19:56:45.399918,569568,-5425,256,64,-26,-192,-55,93,443,-161
1271,2,2022-09-30T19:56:45.408061,569575,-5425,256,64,-26,-192,-55,93,443,-161
1272,2,2022-09-30T19:56:45.413869,569581,-5425,256,64,-26,-192,-55,93,443,-161
1273,2,2022-09-30T19:56:45.421675,569589,-5422,258,61,13,-213,-12,93,443,-161
1274,2,2022-09-30T19:56:45.428630,569596,-5422,258,61,13,-213,-12,93,443,-161
1275,2,2022-09-30T19:56:45.434103,569602,-5422,258,61,13,-213,-12,93,443,-161
1276,2,2022-09-30T19:56:45.440854,569609,-5419,262,65,-13,-198,-12,93,443,-161
1277,2,2022-09-30T19:56:45.449999,569618,-5419,262,65,-13,-198,-12,93,443,-161
1278,2,2022-09-30T19:56:45.455674,569623,-5419,262,65,-13,-198,-12,93,443,-161
1279,2,2022-09-30T19:56:45.466036,569634,-5422,265,62,-65,-165,-46,92,448,-158
1280,2,2022-09-30T19:56:45.471489,569639,-5422,265,62,-65,-165,-46,92,448,-158
1281,2,2022-09-30T19:56:45.478851,569647,-5432,259,67,-87,-158,-71,92,448,-158
1282,2,2022-09-30T19:56:45.492970,569661,-5432,259,67,-87,-158,-71,92,448,-158
1283,2,2022-09-30T19:56:45.500241,569668,-5430,259,63,-88,-193,-82,92,448,-158
1284,2,2022-09-30T19:56:45.506106,569673,-5430,259,63,-88,-193,-82,92,448,-158
1285,2,2022-09-30T19:56:45.513959,569681,-5430,259,63,-88,-193,-82,92,448,-158
1286,2,2022-09-30T19:56:45.521966,569690,-5425,261,60,-86,-220,-105,92,448,-158
1287,2,2022-09-30T19:56:45.529741,569698,-5425,261,60,-86,-220,-105,92,448,-158
1288,2,2022-09-30T19:56:45.535580,569703,-5425,261,60,-86,-220,-105,92,448,-158
1289,2,2022-09-30T19:56:45.543691,569711,-5425,260,69,-56,-240,-113,92,448,-158
1290,2,2022-09-30T19:56:45.550787,569718,-5425,260,69,-56,-240,-113,92,448,-158
1291,2,2022-09-30T19:56:45.556084,569723,-5425,260,69,-56,-240,-113,92,448,-158
1292,2,2022-09-30T19:56:45.563496,569731,-5420,261,67,-31,-263,-108,92,448,-158
1293,2,2022-09-30T19:56:45.573008,569741,-5420,261,67,-31,-263,-108,92,448,-158
1294,2,2022-09-30T19:56:45.580148,569748,-5416,267,72,-31,-253,-129,88,436,-156
1295,2,2022-09-30T19:56:45.587576,569754,-5416,267,72,-31,-253,-129,88,436,-156
1296,2,2022-09-30T19:56:45.594016,569761,-5416,267,72,-31,-253,-129,88,436,-156
1297,2,2022-09-30T19:56:45.600364,569768,-5416,265,76,-59,-224,-173,88,436,-156
1298,2,2022-09-30T19:56:45.608969,569776,-5416,265,76,-59,-224,-173,88,436,-156
1299,2,2022-09-30T19:56:45.616948,569782,-5416,265,76,-59,-224,-173,88,436,-156
1300,2,2022-09-30T19:56:45.624045,569792,-5418,267,69,-105,-167,-184,88,436,-156
1301,2,2022-09-30T19:56:45.629497,569797,-5418,267,69,-105,-167,-184,88,436,-156
1302,2,2022-09-30T19:56:45.635602,569802,-5418,267,69,-105,-167,-184,88,436,-156
1303,2,2022-09-30T19:56:45.645330,569814,-5423,263,68,-138,-155,-156,88,436,-156
1304,2,2022-09-30T19:56:45.652601,569821,-5423,263,68,-138,-155,-156,88,436,-156
1305,2,2022-09-30T19:56:45.659443,569827,-5423,263,68,-138,-155,-156,88,436,-156
1306,2,2022-09-30T19:56:45.669289,569837,-5419,259,61,-170,-148,-110,88,436,-156
1307,2,2022-09-30T19:56:45.674740,569842,-5419,259,61,-170,-148,-110,88,436,-156
1308,2,2022-09-30T19:56:45.681061,569849,-5419,263,63,-209,-128,-61,88,436,-156
1309,2,2022-09-30T19:56:45.690989,569858,-5419,263,63,-209,-128,-61,88,436,-156
1310,2,2022-09-30T19:56:45.698058,569865,-5419,263,63,-209,-128,-61,88,436,-156
1311,2,2022-09-30T19:56:45.705829,569873,-5422,259,66,-246,-132,-31,95,437,-167
1312,2,2022-09-30T19:56:45.719358,569886,-5422,259,66,-246,-132,-31,95,437,-167
1313,2,2022-09-30T19:56:45.727776,569894,-5421,259,65,-260,-154,-31,95,437,-167
1314,2,2022-09-30T19:56:45.742119,569909,-5428,254,64,-260,-159,-25,95,437,-167
1315,2,2022-09-30T19:56:45.757433,569924,-5428,254,64,-260,-159,-25,95,437,-167
1316,2,2022-09-30T19:56:45.767034,569933,-5418,250,58,-245,-180,-57,95,437,-167
1317,2,2022-09-30T19:56:45.778555,569946,-5418,250,58,-245,-180,-57,95,437,-167
1318,2,2022-09-30T19:56:45.792535,569959,-5422,249,63,-204,-147,-97,95,437,-167
1319,2,2022-09-30T19:56:45.803367,569970,-5421,250,53,-166,-135,-119,95,437,-167
1320,2,2022-09-30T19:56:45.814585,569981,-5421,250,53,-166,-135,-119,95,437,-167
1321,2,2022-09-30T19:56:45.824180,569991,-5415,254,54,-125,-131,-128,91,441,-161
1322,2,2022-09-30T19:56:45.834651,570000,-5415,254,54,-125,-131,-128,91,441,-161
1323,2,2022-09-30T19:56:45.843476,570011,-5441,251,61,-115,-106,-115,91,441,-161
1324,2,2022-09-30T19:56:45.849770,570016,-5441,251,61,-115,-106,-115,91,441,-161
1325,2,2022-09-30T19:56:45.855209,570023,-5441,251,61,-115,-106,-115,91,441,-161
1326,2,2022-09-30T19:56:45.860370,570029,-5443,254,59,-95,-184,-81,91,441,-161
1327,2,2022-09-30T19:56:45.867587,570036,-5443,254,59,-95,-184,-81,91,441,-161
1328,2,2022-09-30T19:56:45.872608,570041,-5443,254,59,-95,-184,-81,91,441,-161
1329,2,2022-09-30T19:56:45.877753,570046,-5443,254,59,-95,-184,-81,91,441,-161
1330,2,2022-09-30T19:56:45.882690,570051,-5424,259,57,-62,-283,-15,91,441,-161
1331,2,2022-09-30T19:56:45.889139,570057,-5424,259,57,-62,-283,-15,91,441,-161
1332,2,2022-09-30T19:56:45.894495,570062,-5424,259,57,-62,-283,-15,91,441,-161
1333,2,2022-09-30T19:56:45.901005,570070,-5419,265,60,-29,-278,36,91,441,-161
1334,2,2022-09-30T19:56:45.908136,570076,-5419,265,60,-29,-278,36,91,441,-161
1335,2,2022-09-30T19:56:45.913174,570081,-5419,265,60,-29,-278,36,91,441,-161
1336,2,2022-09-30T19:56:45.919244,570087,-5416,265,57,-31,-251,68,91,441,-161
1337,2,2022-09-30T19:56:45.927232,570095,-5416,265,57,-31,-251,68,91,441,-161
1338,2,2022-09-30T19:56:45.932482,570100,-5416,265,57,-31,-251,68,91,441,-161
1339,2,2022-09-30T19:56:45.938662,570106,-5416,265,57,-31,-251,68,91,441,-161
1340,2,2022-09-30T19:56:45.944907,570113,-5414,273,57,-84,-208,61,91,441,-161
1341,2,2022-09-30T19:56:45.950992,570119,-5414,273,57,-84,-208,61,91,441,-161
1342,2,2022-09-30T19:56:45.956525,570124,-5414,273,57,-84,-208,61,91,441,-161
1343,2,2022-09-30T19:56:45.962308,570130,-5426,275,65,-140,-173,38,91,447,-163
1344,2,2022-09-30T19:56:45.968941,570136,-5426,275,65,-140,-173,38,91,447,-163
1345,2,2022-09-30T19:56:45.974462,570142,-5426,275,65,-140,-173,38,91,447,-163
1346,2,2022-09-30T19:56:45.981282,570148,-5428,274,64,-184,-203,26,91,447,-163
1347,2,2022-09-30T19:56:45.986613,570155,-5428,274,64,-184,-203,26,91,447,-163
1348,2,2022-09-30T19:56:45.992047,570160,-5428,274,64,-184,-203,26,91,447,-163
1349,2,2022-09-30T19:56:45.999038,570166,-5428,274,64,-184,-203,26,91,447,-163
1350,2,2022-09-30T19:56:46.004958,570172,-5434,274,71,-243,-261,1,91,447,-163
1351,2,2022-09-30T19:56:46.013494,570181,-5434,274,71,-243,-261,1,91,447,-163
1352,2,2022-09-30T19:56:46.020399,570187,-5426,272,65,-284,-258,-44,91,447,-163
1353,2,2022-09-30T19:56:46.027480,570194,-5426,272,65,-284,-258,-44,91,447,-163
1354,2,2022-09-30T19:56:46.033946,570201,-5426,272,65,-284,-258,-44,91,447,-163
1355,2,2022-09-30T19:56:46.041083,570209,-5417,268,62,-341,-210,-103,91,447,-163
1356,2,2022-09-30T19:56:46.049665,570216,-5417,268,62,-341,-210,-103,91,447,-163
1357,2,2022-09-30T19:56:46.057986,570223,-5417,268,62,-341,-210,-103,91,447,-163
1358,2,2022-09-30T19:56:46.066201,570232,-5406,263,55,-379,-145,-142,91,447,-163
1359,2,2022-09-30T19:56:46.074580,570242,-5406,263,55,-379,-145,-142,91,447,-163
1360,2,2022-09-30T19:56:46.082240,570249,-5427,258,62,-385,-98,-131,93,443,-165
1361,2,2022-09-30T19:56:46.089665,570256,-5427,258,62,-385,-98,-131,93,443,-165
1362,2,2022-09-30T19:56:46.095316,570263,-5427,258,62,-385,-98,-131,93,443,-165
1363,2,2022-09-30T19:56:46.103229,570270,-5433,257,55,-376,-122,-76,93,443,-165
1364,2,2022-09-30T19:56:46.112099,570278,-5433,257,55,-376,-122,-76,93,443,-165
1365,2,2022-09-30T19:56:46.119892,570287,-5433,257,55,-376,-122,-76,93,443,-165
1366,2,2022-09-30T19:56:46.127135,570294,-5429,263,58,-346,-202,20,93,443,-165
1367,2,2022-09-30T19:56:46.135792,570302,-5429,263,58,-346,-202,20,93,443,-165
1368,2,2022-09-30T19:56:46.143415,570310,-5425,263,59,-335,-252,80,93,443,-165
1369,2,2022-09-30T19:56:46.151741,570318,-5425,263,59,-335,-252,80,93,443,-165
1370,2,2022-09-30T19:56:46.159617,570326,-5425,263,59,-335,-252,80,93,443,-165
1371,2,2022-09-30T19:56:46.166506,570333,-5432,262,60,-347,-227,95,93,443,-165
1372,2,2022-09-30T19:56:46.175504,570342,-5432,262,60,-347,-227,95,93,443,-165
1373,2,2022-09-30T19:56:46.184033,570350,-5428,263,57,-381,-220,50,93,443,-165
1374,2,2022-09-30T19:56:46.193719,570359,-5428,263,57,-381,-220,50,93,443,-165
1375,2,2022-09-30T19:56:46.201703,570369,-5424,265,57,-386,-214,-14,96,444,-162
1376,2,2022-09-30T19:56:46.209624,570376,-5424,265,57,-386,-214,-14,96,444,-162
1377,2,2022-09-30T19:56:46.216428,570383,-5424,265,57,-386,-214,-14,96,444,-162
1378,2,2022-09-30T19:56:46.224591,570391,-5428,259,55,-363,-218,-50,96,444,-162
1379,2,2022-09-30T19:56:46.234267,570400,-5428,259,55,-363,-218,-50,96,444,-162
1380,2,2022-09-30T19:56:46.242080,570408,-5430,256,56,-352,-232,-69,96,444,-162
1381,2,2022-09-30T19:56:46.250060,570417,-5430,256,56,-352,-232,-69,96,444,-162
1382,2,2022-09-30T19:56:46.258362,570424,-5430,256,56,-352,-232,-69,96,444,-162
1383,2,2022-09-30T19:56:46.265678,570433,-5430,261,64,-340,-247,-74,96,444,-162
1384,2,2022-09-30T19:56:46.274600,570441,-5430,261,64,-340,-247,-74,96,444,-162
1385,2,2022-09-30T19:56:46.283216,570448,-5430,263,57,-330,-282,-71,96,444,-162
1386,2,2022-09-30T19:56:46.292083,570459,-5430,263,57,-330,-282,-71,96,444,-162
1387,2,2022-09-30T19:56:46.298812,570465,-5430,263,57,-330,-282,-71,96,444,-162
1388,2,2022-09-30T19:56:46.307083,570473,-5428,264,61,-338,-323,-61,96,444,-162
1389,2,2022-09-30T19:56:46.315131,570481,-5428,264,61,-338,-323,-61,96,444,-162
1390,2,2022-09-30T19:56:46.322832,570489,-5423,262,66,-355,-364,-45,93,445,-171
1391,2,2022-09-30T19:56:46.332040,570498,-5423,262,66,-355,-364,-45,93,445,-171
1392,2,2022-09-30T19:56:46.338964,570506,-5423,262,66,-355,-364,-45,93,445,-171
1393,2,2022-09-30T19:56:46.347406,570513,-5414,261,65,-348,-368,-25,93,445,-171
1394,2,2022-09-30T19:56:46.356046,570523,-5414,261,65,-348,-368,-25,93,445,-171
1395,2,2022-09-30T19:56:46.364561,570530,-5414,260,69,-335,-333,-26,93,445,-171
1396,2,2022-09-30T19:56:46.370975,570537,-5414,260,69,-335,-333,-26,93,445,-171
1397,2,2022-09-30T19:56:46.376642,570545,-5414,260,69,-335,-333,-26,93,445,-171
1398,2,2022-09-30T19:56:46.387911,570554,-5416,259,72,-333,-287,-39,93,445,-171
1399,2,2022-09-30T19:56:46.396662,570563,-5416,259,72,-333,-287,-39,93,445,-171
1400,2,2022-09-30T19:56:46.404961,570571,-5419,261,69,-352,-216,-67,93,445,-171
1401,2,2022-09-30T19:56:46.414039,570580,-5419,261,69,-352,-216,-67,93,445,-171
1402,2,2022-09-30T19:56:46.421585,570589,-5423,259,65,-398,-180,-82,93,445,-171
1403,2,2022-09-30T19:56:46.430807,570597,-5423,259,65,-398,-180,-82,93,445,-171
1404,2,2022-09-30T19:56:46.436818,570604,-5423,259,65,-398,-180,-82,93,445,-171
1405,2,2022-09-30T19:56:46.443185,570610,-5423,261,69,-414,-189,-81,85,433,-159
1406,2,2022-09-30T19:56:46.450647,570617,-5423,261,69,-414,-189,-81,85,433,-159
1407,2,2022-09-30T19:56:46.456119,570624,-5423,261,69,-414,-189,-81,85,433,-159
1408,2,2022-09-30T19:56:46.464791,570631,-5423,258,67,-409,-227,-38,85,433,-159
1409,2,2022-09-30T19:56:46.471714,570639,-5423,258,67,-409,-227,-38,85,433,-159
1410,2,2022-09-30T19:56:46.479472,570646,-5423,258,67,-409,-227,-38,85,433,-159
1411,2,2022-09-30T19:56:46.486871,570653,-5417,256,68,-394,-246,-26,85,433,-159
1412,2,2022-09-30T19:56:46.494588,570661,-5417,256,68,-394,-246,-26,85,433,-159
1413,2,2022-09-30T19:56:46.502379,570669,-5421,253,69,-386,-211,-43,85,433,-159
1414,2,2022-09-30T19:56:46.511072,570678,-5421,253,69,-386,-211,-43,85,433,-159
1415,2,2022-09-30T19:56:46.517504,570684,-5421,253,69,-386,-211,-43,85,433,-159
1416,2,2022-09-30T19:56:46.525631,570692,-5416,258,64,-377,-172,-31,85,433,-159
1417,2,2022-09-30T19:56:46.532424,570699,-5416,258,64,-377,-172,-31,85,433,-159
1418,2,2022-09-30T19:56:46.540190,570706,-5416,258,64,-377,-172,-31,85,433,-159
1419,2,2022-09-30T19:56:46.546718,570714,-5413,257,56,-358,-135,-10,85,433,-159
1420,2,2022-09-30T19:56:46.555374,570722,-5413,257,56,-358,-135,-10,85,433,-159
1421,2,2022-09-30T19:56:46.561992,570729,-5440,256,61,-344,-98,15,85,433,-159
1422,2,2022-09-30T19:56:46.569992,570736,-5440,256,61,-344,-98,15,85,433,-159
1423,2,2022-09-30T19:56:46.576302,570743,-5440,256,61,-344,-98,15,85,433,-159
1424,2,2022-09-30T19:56:46.584695,570750,-5439,257,68,-344,-159,0,81,445,-167
1425,2,2022-09-30T19:56:46.592617,570759,-5439,257,68,-344,-159,0,81,445,-167
1426,2,2022-09-30T19:56:46.599522,570766,-5439,257,68,-344,-159,0,81,445,-167
1427,2,2022-09-30T19:56:46.608295,570774,-5422,257,61,-318,-267,24,81,445,-167
1428,2,2022-09-30T19:56:46.616100,570782,-5422,257,61,-318,-267,24,81,445,-167
1429,2,2022-09-30T19:56:46.623710,570790,-5418,267,61,-307,-269,51,81,445,-167
1430,2,2022-09-30T19:56:46.632023,570798,-5418,267,61,-307,-269,51,81,445,-167
1431,2,2022-09-30T19:56:46.638775,570805,-5418,267,61,-307,-269,51,81,445,-167
1432,2,2022-09-30T19:56:46.646769,570813,-5419,269,65,-304,-209,49,81,445,-167
1433,2,2022-09-30T19:56:46.656094,570822,-5419,269,65,-304,-209,49,81,445,-167
1434,2,2022-09-30T19:56:46.664196,570830,-5430,272,67,-332,-157,47,81,445,-167
1435,2,2022-09-30T19:56:46.672893,570840,-5430,272,67,-332,-157,47,81,445,-167
1436,2,2022-09-30T19:56:46.680509,570847,-5430,272,67,-332,-157,47,81,445,-167
1437,2,2022-09-30T19:56:46.687565,570855,-5428,275,59,-371,-154,41,81,445,-167
1438,2,2022-09-30T19:56:46.696562,570863,-5428,275,59,-371,-154,41,81,445,-167
1439,2,2022-09-30T19:56:46.704466,570871,-5427,273,61,-413,-182,42,89,439,-157
1440,2,2022-09-30T19:56:46.713588,570881,-5427,273,61,-413,-182,42,89,439,-157
1441,2,2022-09-30T19:56:46.720634,570888,-5427,273,61,-413,-182,42,89,439,-157
1442,2,2022-09-30T19:56:46.728820,570895,-5427,264,57,-446,-235,-1,89,439,-157
1443,2,2022-09-30T19:56:46.735308,570902,-5427,264,57,-446,-235,-1,89,439,-157
1444,2,2022-09-30T19:56:46.743752,570909,-5427,261,57,-462,-260,-29,89,439,-157
1445,2,2022-09-30T19:56:46.752863,570919,-5427,261,57,-462,-260,-29,89,439,-157
1446,2,2022-09-30T19:56:46.759382,570926,-5427,261,57,-462,-260,-29,89,439,-157
1447,2,2022-09-30T19:56:46.764945,570933,-5427,255,65,-421,-277,-43,89,439,-157
1448,2,2022-09-30T19:56:46.770694,570938,-5427,255,65,-421,-277,-43,89,439,-157
1449,2,2022-09-30T19:56:46.778145,570945,-5427,255,65,-421,-277,-43,89,439,-157
1450,2,2022-09-30T19:56:46.786196,570952,-5416,255,63,-368,-304,-56,89,439,-157
1451,2,2022-09-30T19:56:46.795396,570961,-5416,255,63,-368,-304,-56,89,439,-157
1452,2,2022-09-30T19:56:46.803236,570970,-5423,258,63,-302,-261,-49,89,439,-157
1453,2,2022-09-30T19:56:46.812121,570979,-5423,258,63,-302,-261,-49,89,439,-157
1454,2,2022-09-30T19:56:46.818926,570985,-5423,258,63,-302,-261,-49,89,439,-157
1455,2,2022-09-30T19:56:46.827341,570993,-5424,260,66,-287,-202,-58,84,442,-160
1456,2,2022-09-30T19:56:46.835649,571001,-5424,260,66,-287,-202,-58,84,442,-160
1457,2,2022-09-30T19:56:46.843650,571011,-5431,256,64,-327,-217,-57,84,442,-160
1458,2,2022-09-30T19:56:46.851489,571019,-5431,256,64,-327,-217,-57,84,442,-160
1459,2,2022-09-30T19:56:46.858634,571025,-5431,256,64,-327,-217,-57,84,442,-160
1460,2,2022-09-30T19:56:46.866049,571033,-5429,258,69,-341,-272,-47,84,442,-160
1461,2,2022-09-30T19:56:46.875033,571041,-5429,258,69,-341,-272,-47,84,442,-160
1462,2,2022-09-30T19:56:46.883550,571049,-5417,259,60,-347,-296,-30,84,442,-160
1463,2,2022-09-30T19:56:46.892342,571059,-5417,259,60,-347,-296,-30,84,442,-160
1464,2,2022-09-30T19:56:46.898926,571066,-5417,259,60,-347,-296,-30,84,442,-160
1465,2,2022-09-30T19:56:46.906334,571073,-5413,260,60,-347,-261,-40,84,442,-160
1466,2,2022-09-30T19:56:46.914611,571081,-5413,260,60,-347,-261,-40,84,442,-160
1467,2,2022-09-30T19:56:46.922247,571089,-5421,256,62,-338,-220,-54,84,442,-160
1468,2,2022-09-30T19:56:46.930883,571098,-5421,256,62,-338,-220,-54,84,442,-160
1469,2,2022-09-30T19:56:46.937803,571105,-5421,256,62,-338,-220,-54,84,442,-160
1470,2,2022-09-30T19:56:46.945231,571112,-5427,256,66,-320,-222,-48,89,445,-169
1471,2,2022-09-30T19:56:46.951738,571118,-5427,256,66,-320,-222,-48,89,445,-169
1472,2,2022-09-30T19:56:46.959049,571125,-5427,256,66,-320,-222,-48,89,445,-169
1473,2,2022-09-30T19:56:46.966404,571133,-5428,255,72,-297,-237,-46,89,445,-169
1474,2,2022-09-30T19:56:46.975946,571143,-5428,255,72,-297,-237,-46,89,445,-169
1475,2,2022-09-30T19:56:46.984506,571150,-5425,256,68,-283,-266,-49,89,445,-169
1476,2,2022-09-30T19:56:46.992884,571160,-5425,256,68,-283,-266,-49,89,445,-169
1477,2,2022-09-30T19:56:47.000768,571167,-5425,256,68,-283,-266,-49,89,445,-169
1478,2,2022-09-30T19:56:47.007885,571174,-5420,255,69,-274,-248,-48,89,445,-169
1479,2,2022-09-30T19:56:47.016703,571183,-5420,255,69,-274,-248,-48,89,445,-169
1480,2,2022-09-30T19:56:47.024697,571191,-5418,261,64,-253,-232,-59,89,445,-169
1481,2,2022-09-30T19:56:47.033638,571200,-5418,261,64,-253,-232,-59,89,445,-169
1482,2,2022-09-30T19:56:47.041348,571208,-5418,261,64,-253,-232,-59,89,445,-169
1483,2,2022-09-30T19:56:47.048967,571215,-5425,260,67,-225,-218,-58,89,445,-169
1484,2,2022-09-30T19:56:47.056566,571224,-5425,260,67,-225,-218,-58,89,445,-169
1485,2,2022-09-30T19:56:47.064384,571231,-5423,260,69,-221,-220,-73,82,440,-158
1486,2,2022-09-30T19:56:47.071467,571238,-5423,260,69,-221,-220,-73,82,440,-158
1487,2,2022-09-30T19:56:47.077879,571245,-5423,260,69,-221,-220,-73,82,440,-158
1488,2,2022-09-30T19:56:47.085600,571252,-5419,258,69,-210,-221,-81,82,440,-158
1489,2,2022-09-30T19:56:47.093343,571259,-5419,258,69,-210,-221,-81,82,440,-158
1490,2,2022-09-30T19:56:47.101766,571268,-5419,258,69,-210,-221,-81,82,440,-158
1491,2,2022-09-30T19:56:47.109671,571276,-5420,258,67,-212,-218,-79,82,440,-158
1492,2,2022-09-30T19:56:47.118028,571285,-5420,258,67,-212,-218,-79,82,440,-158
1493,2,2022-09-30T19:56:47.125909,571292,-5427,260,64,-221,-202,-86,82,440,-158
1494,2,2022-09-30T19:56:47.132986,571300,-5427,260,64,-221,-202,-86,82,440,-158
1495,2,2022-09-30T19:56:47.141043,571308,-5427,260,64,-221,-202,-86,82,440,-158
1496,2,2022-09-30T19:56:47.147878,571315,-5426,255,64,-219,-218,-82,82,440,-158
1497,2,2022-09-30T19:56:47.155820,571322,-5426,255,64,-219,-218,-82,82,440,-158
1498,2,2022-09-30T19:56:47.163783,571330,-5421,257,61,-218,-226,-52,82,440,-158
1499,2,2022-09-30T19:56:47.172969,571339,-5421,257,61,-218,-226,-52,82,440,-158
1500,2,2022-09-30T19:56:47.179371,571346,-5421,257,61,-218,-226,-52,82,440,-158
1501,2,2022-09-30T19:56:47.187026,571354,-5422,261,61,-201,-234,-25,82,440,-158
1502,2,2022-09-30T19:56:47.195681,571362,-5422,261,61,-201,-234,-25,82,440,-158
1503,2,2022-09-30T19:56:47.203438,571370,-5415,263,74,-182,-250,-5,88,448,-162
1504,2,2022-09-30T19:56:47.210106,571377,-5415,263,74,-182,-250,-5,88,448,-162
1505,2,2022-09-30T19:56:47.216497,571384,-5415,263,74,-182,-250,-5,88,448,-162
1506,2,2022-09-30T19:56:47.223402,571390,-5422,265,65,-177,-237,-5,88,448,-162
1507,2,2022-09-30T19:56:47.230974,571399,-5422,265,65,-177,-237,-5,88,448,-162
1508,2,2022-09-30T19:56:47.237746,571406,-5422,265,65,-177,-237,-5,88,448,-162
1509,2,2022-09-30T19:56:47.244821,571412,-5422,266,65,-176,-211,-11,88,448,-162
1510,2,2022-09-30T19:56:47.254557,571421,-5422,266,65,-176,-211,-11,88,448,-162
1511,2,2022-09-30T19:56:47.260522,571427,-5422,266,65,-176,-211,-11,88,448,-162
1512,2,2022-09-30T19:56:47.267215,571435,-5417,264,61,-203,-183,-44,88,448,-162
1513,2,2022-09-30T19:56:47.273256,571441,-5417,264,61,-203,-183,-44,88,448,-162
