,imu,server_time,arduino_time,ax,ay,az,gx,gy,gz,mx,my,mz
0,0,2022-09-30T19:56:36.396510,560562,-1772,-404,-88,-991,-505,-366,123,417,-227
1,0,2022-09-30T19:56:36.411361,560577,-1774,-400,-102,-1141,-667,-313,123,417,-227
2,0,2022-09-30T19:56:36.420185,560586,-1783,-400,-104,-1034,-728,-317,123,417,-227
3,0,2022-09-30T19:56:36.426068,560592,-1783,-400,-104,-1034,-728,-317,123,415,-225
4,0,2022-09-30T19:56:36.432414,560599,-1783,-400,-104,-1034,-728,-317,123,415,-225
5,0,2022-09-30T19:56:36.438642,560605,-1783,-400,-104,-1034,-728,-317,123,415,-225
6,0,2022-09-30T19:56:36.444938,560611,-1783,-400,-110,-984,-501,-347,123,415,-225
7,0,2022-09-30T19:56:36.450948,560617,-1783,-400,-110,-984,-501,-347,123,415,-225
8,0,2022-09-30T19:56:36.457000,560623,-1783,-400,-110,-984,-501,-347,123,415,-225
9,0,2022-09-30T19:56:36.463494,560629,-1772,-404,-95,-877,-395,-399,123,415,-225
10,0,2022-09-30T19:56:36.471720,560637,-1772,-404,-95,-877,-395,-399,123,415,-225
11,0,2022-09-30T19:56:36.477986,560644,-1772,-404,-95,-877,-395,-399,123,415,-225
12,0,2022-09-30T19:56:36.484478,560651,-1774,-402,-82,-928,-532,-373,123,415,-225
13,0,2022-09-30T19:56:36.493925,560658,-1774,-402,-82,-928,-532,-373,123,415,-225
14,0,2022-09-30T19:56:36.500530,560666,-1774,-402,-82,-928,-532,-373,123,415,-225
15,0,2022-09-30T19:56:36.507735,560674,-1782,-396,-86,-1105,-624,-246,123,415,-225
16,0,2022-09-30T19:56:36.514963,560681,-1782,-396,-86,-1105,-624,-246,123,415,-225
17,0,2022-09-30T19:56:36.522036,560688,-1776,-401,-93,-1167,-637,-210,123,415,-225
18,0,2022-09-30T19:56:36.531323,560697,-1776,-401,-93,-1167,-637,-210,123,415,-225
19,0,2022-09-30T19:56:36.537414,560703,-1776,-401,-93,-1167,-637,-210,123,415,-225
20,0,2022-09-30T19:56:36.543452,560710,-1784,-400,-96,-1169,-656,-254,113,417,-229
21,0,2022-09-30T19:56:36.551419,560717,-1784,-400,-96,-1169,-656,-254,113,417,-229
22,0,2022-09-30T19:56:36.557461,560723,-1784,-400,-96,-1169,-656,-254,113,417,-229
23,0,2022-09-30T19:56:36.563478,560730,-1784,-400,-96,-1169,-656,-254,113,417,-229
24,0,2022-09-30T19:56:36.569568,560736,-1784,-400,-96,-1169,-656,-254,113,417,-229
25,0,2022-09-30T19:56:36.576491,560743,-1784,-400,-96,-1169,-656,-254,113,417,-229
26,0,2022-09-30T19:56:36.585798,560752,-1773,-393,-103,-956,-533,-382,113,417,-229
27,0,2022-09-30T19:56:36.593277,560759,-1773,-393,-103,-956,-533,-382,113,417,-229
28,0,2022-09-30T19:56:36.599597,560765,-1773,-393,-103,-956,-533,-382,113,417,-229
29,0,2022-09-30T19:56:36.606770,560773,-1784,-397,-96,-1012,-500,-247,113,417,-229
30,0,2022-09-30T19:56:36.614162,560781,-1784,-397,-96,-1012,-500,-247,113,417,-229
31,0,2022-09-30T19:56:36.619674,560786,-1784,-397,-96,-1012,-500,-247,113,417,-229
32,0,2022-09-30T19:56:36.626628,560792,-1786,-400,-94,-1082,-543,-241,113,417,-229
33,0,2022-09-30T19:56:36.634644,560800,-1786,-400,-94,-1082,-543,-241,113,417,-229
34,0,2022-09-30T19:56:36.651301,560806,-1776,-401,-94,-1163,-617,-260,113,417,-229
35,0,2022-09-30T19:56:36.661948,560828,-1778,-394,-100,-1166,-638,-229,113,417,-229
36,0,2022-09-30T19:56:36.671102,560837,-1778,-394,-100,-1166,-638,-229,113,417,-229
37,0,2022-09-30T19:56:36.678934,560844,-1778,-394,-100,-1166,-638,-229,113,417,-229
38,0,2022-09-30T19:56:36.686959,560852,-1781,-394,-99,-1145,-700,-277,120,418,-230
39,0,2022-09-30T19:56:36.695189,560861,-1781,-394,-99,-1145,-700,-277,120,418,-230
40,0,2022-09-30T19:56:36.702450,560868,-1783,-403,-99,-1137,-677,-289,120,418,-230
41,0,2022-09-30T19:56:36.711513,560878,-1783,-403,-99,-1137,-677,-289,120,418,-230
42,0,2022-09-30T19:56:36.718179,560884,-1783,-403,-99,-1137,-677,-289,120,418,-230
43,0,2022-09-30T19:56:36.726655,560892,-1779,-406,-100,-1068,-580,-394,120,418,-230
44,0,2022-09-30T19:56:36.736072,560901,-1779,-406,-100,-1068,-580,-394,120,418,-230
45,0,2022-09-30T19:56:36.743694,560909,-1780,-405,-97,-1061,-505,-355,120,418,-230
46,0,2022-09-30T19:56:36.752335,560917,-1780,-405,-97,-1061,-505,-355,120,418,-230
47,0,2022-09-30T19:56:36.758815,560925,-1780,-405,-97,-1061,-505,-355,120,418,-230
48,0,2022-09-30T19:56:36.766309,560932,-1775,-396,-93,-922,-454,-314,120,418,-230
49,0,2022-09-30T19:56:36.775794,560941,-1775,-396,-93,-922,-454,-314,120,418,-230
50,0,2022-09-30T19:56:36.781705,560948,-1777,-385,-93,-999,-417,-162,120,418,-230
51,0,2022-09-30T19:56:36.791705,560958,-1777,-385,-93,-999,-417,-162,120,418,-230
52,0,2022-09-30T19:56:36.797825,560964,-1777,-385,-93,-999,-417,-162,120,418,-230
53,0,2022-09-30T19:56:36.805151,560971,-1778,-396,-93,-1181,-589,-165,121,417,-227
54,0,2022-09-30T19:56:36.811105,560977,-1778,-396,-93,-1181,-589,-165,121,417,-227
55,0,2022-09-30T19:56:36.818126,560984,-1778,-396,-93,-1181,-589,-165,121,417,-227
56,0,2022-09-30T19:56:36.826138,560993,-1782,-405,-104,-1145,-732,-305,121,417,-227
57,0,2022-09-30T19:56:36.835135,561001,-1782,-405,-104,-1145,-732,-305,121,417,-227
58,0,2022-09-30T19:56:36.841161,561007,-1774,-400,-104,-1017,-591,-515,121,417,-227
59,0,2022-09-30T19:56:36.849950,561016,-1774,-400,-104,-1017,-591,-515,121,417,-227
60,0,2022-09-30T19:56:36.856011,561022,-1774,-400,-104,-1017,-591,-515,121,417,-227
61,0,2022-09-30T19:56:36.863637,561030,-1773,-399,-102,-971,-461,-509,121,417,-227
62,0,2022-09-30T19:56:36.869881,561036,-1773,-399,-102,-971,-461,-509,121,417,-227
63,0,2022-09-30T19:56:36.875747,561042,-1773,-399,-102,-971,-461,-509,121,417,-227
64,0,2022-09-30T19:56:36.881778,561048,-1780,-402,-94,-1102,-518,-296,121,417,-227
65,0,2022-09-30T19:56:36.889622,561056,-1780,-402,-94,-1102,-518,-296,121,417,-227
66,0,2022-09-30T19:56:36.894955,561061,-1780,-402,-94,-1102,-518,-296,121,417,-227
67,0,2022-09-30T19:56:36.900805,561068,-1779,-396,-107,-1172,-649,-199,121,417,-227
68,0,2022-09-30T19:56:36.907135,561074,-1779,-396,-107,-1172,-649,-199,121,417,-227
69,0,2022-09-30T19:56:36.912647,561079,-1779,-396,-107,-1172,-649,-199,121,417,-227
70,0,2022-09-30T19:56:36.919198,561085,-1779,-396,-107,-1172,-649,-199,121,417,-227
71,0,2022-09-30T19:56:36.927332,561093,-1775,-392,-116,-1131,-604,-159,121,417,-227
72,0,2022-09-30T19:56:36.938320,561104,-1775,-392,-116,-1131,-604,-159,121,417,-227
73,0,2022-09-30T19:56:36.950159,561117,-1778,-400,-94,-1056,-519,-235,121,417,-229
74,0,2022-09-30T19:56:36.959887,561126,-1778,-400,-94,-1056,-519,-235,121,417,-229
75,0,2022-09-30T19:56:36.970328,561136,-1782,-394,-99,-1057,-585,-330,121,417,-229
76,0,2022-09-30T19:56:36.979780,561145,-1782,-394,-99,-1057,-585,-330,121,417,-229
77,0,2022-09-30T19:56:36.987390,561154,-1783,-394,-110,-1022,-678,-386,121,417,-229
78,0,2022-09-30T19:56:36.996577,561163,-1783,-394,-110,-1022,-678,-386,121,417,-229
79,0,2022-09-30T19:56:37.007091,561173,-1781,-406,-116,-1036,-562,-354,121,417,-229
80,0,2022-09-30T19:56:37.015922,561182,-1781,-406,-116,-1036,-562,-354,121,417,-229
81,0,2022-09-30T19:56:37.023633,561189,-1773,-406,-99,-997,-495,-388,121,417,-229
82,0,2022-09-30T19:56:37.033139,561200,-1773,-406,-99,-997,-495,-388,121,417,-229
83,0,2022-09-30T19:56:37.040150,561206,-1773,-406,-99,-997,-495,-388,121,417,-229
84,0,2022-09-30T19:56:37.046720,561213,-1775,-408,-88,-997,-500,-314,121,417,-229
85,0,2022-09-30T19:56:37.053842,561220,-1775,-408,-88,-997,-500,-314,121,417,-229
86,0,2022-09-30T19:56:37.060654,561227,-1775,-408,-88,-997,-500,-314,121,417,-229
87,0,2022-09-30T19:56:37.068916,561233,-1780,-413,-94,-1100,-557,-280,126,418,-228
88,0,2022-09-30T19:56:37.075500,561243,-1780,-413,-94,-1100,-557,-280,126,418,-228
89,0,2022-09-30T19:56:37.081441,561248,-1776,-399,-109,-974,-530,-382,126,418,-228
90,0,2022-09-30T19:56:37.088847,561256,-1776,-399,-109,-974,-530,-382,126,418,-228
91,0,2022-09-30T19:56:37.095369,561261,-1776,-399,-109,-974,-530,-382,126,418,-228
92,0,2022-09-30T19:56:37.101984,561268,-1774,-390,-100,-856,-519,-376,126,418,-228
93,0,2022-09-30T19:56:37.111133,561277,-1774,-390,-100,-856,-519,-376,126,418,-228
94,0,2022-09-30T19:56:37.117246,561284,-1774,-390,-100,-856,-519,-376,126,418,-228
95,0,2022-09-30T19:56:37.123010,561290,-1775,-395,-102,-973,-574,-295,126,418,-228
96,0,2022-09-30T19:56:37.129510,561295,-1775,-395,-102,-973,-574,-295,126,418,-228
97,0,2022-09-30T19:56:37.134694,561302,-1775,-395,-102,-973,-574,-295,126,418,-228
98,0,2022-09-30T19:56:37.140070,561307,-1775,-395,-102,-973,-574,-295,126,418,-228
99,0,2022-09-30T19:56:37.147349,561314,-1776,-400,-102,-1010,-630,-290,126,418,-228
100,0,2022-09-30T19:56:37.154999,561321,-1776,-400,-102,-1010,-630,-290,126,418,-228
101,0,2022-09-30T19:56:37.160320,561327,-1776,-400,-102,-1010,-630,-290,126,418,-228
102,0,2022-09-30T19:56:37.166650,561334,-1780,-395,-103,-996,-618,-300,126,418,-228
103,0,2022-09-30T19:56:37.173017,561340,-1780,-395,-103,-996,-618,-300,126,418,-228
104,0,2022-09-30T19:56:37.179306,561345,-1780,-395,-103,-996,-618,-300,126,418,-228
105,0,2022-09-30T19:56:37.185931,561352,-1781,-395,-99,-990,-556,-225,121,423,-227
106,0,2022-09-30T19:56:37.193585,561360,-1781,-395,-99,-990,-556,-225,121,423,-227
107,0,2022-09-30T19:56:37.202766,561369,-1783,-403,-99,-1056,-550,-144,121,423,-227
108,0,2022-09-30T19:56:37.213158,561380,-1783,-403,-99,-1056,-550,-144,121,423,-227
109,0,2022-09-30T19:56:37.218798,561386,-1783,-403,-99,-1056,-550,-144,121,423,-227
110,0,2022-09-30T19:56:37.225671,561392,-1781,-400,-108,-1015,-584,-288,121,423,-227
111,0,2022-09-30T19:56:37.231149,561397,-1781,-400,-108,-1015,-584,-288,121,423,-227
112,0,2022-09-30T19:56:37.236957,561403,-1781,-400,-108,-1015,-584,-288,121,423,-227
113,0,2022-09-30T19:56:37.243314,561410,-1773,-389,-109,-890,-507,-412,121,423,-227
114,0,2022-09-30T19:56:37.250853,561417,-1773,-389,-109,-890,-507,-412,121,423,-227
115,0,2022-09-30T19:56:37.256796,561423,-1773,-389,-109,-890,-507,-412,121,423,-227
116,0,2022-09-30T19:56:37.262883,561430,-1771,-390,-96,-874,-448,-372,121,423,-227
117,0,2022-09-30T19:56:37.270623,561437,-1771,-390,-96,-874,-448,-372,121,423,-227
118,0,2022-09-30T19:56:37.275829,561443,-1771,-390,-96,-874,-448,-372,121,423,-227
119,0,2022-09-30T19:56:37.281608,561447,-1782,-399,-100,-997,-515,-271,121,423,-227
120,0,2022-09-30T19:56:37.287382,561454,-1782,-399,-100,-997,-515,-271,121,423,-227
121,0,2022-09-30T19:56:37.293009,561460,-1782,-399,-100,-997,-515,-271,121,423,-227
122,0,2022-09-30T19:56:37.299740,561466,-1782,-399,-100,-997,-515,-271,121,423,-227
123,0,2022-09-30T19:56:37.306072,561472,-1786,-410,-97,-1071,-624,-330,121,423,-227
124,0,2022-09-30T19:56:37.312264,561478,-1786,-410,-97,-1071,-624,-330,121,423,-227
125,0,2022-09-30T19:56:37.318152,561484,-1786,-410,-97,-1071,-624,-330,121,423,-227
126,0,2022-09-30T19:56:37.325430,561491,-1776,-401,-93,-1002,-704,-436,122,414,-220
127,0,2022-09-30T19:56:37.333276,561499,-1776,-401,-93,-1002,-704,-436,122,414,-220
128,0,2022-09-30T19:56:37.339244,561506,-1776,-401,-93,-1002,-704,-436,122,414,-220
129,0,2022-09-30T19:56:37.345243,561512,-1778,-394,-106,-1107,-667,-271,122,414,-220
130,0,2022-09-30T19:56:37.353277,561520,-1778,-394,-106,-1107,-667,-271,122,414,-220
131,0,2022-09-30T19:56:37.359591,561526,-1778,-394,-106,-1107,-667,-271,122,414,-220
132,0,2022-09-30T19:56:37.365178,561531,-1786,-397,-127,-1005,-696,-182,122,414,-220
133,0,2022-09-30T19:56:37.371549,561538,-1786,-397,-127,-1005,-696,-182,122,414,-220
134,0,2022-09-30T19:56:37.378410,561545,-1786,-397,-127,-1005,-696,-182,122,414,-220
135,0,2022-09-30T19:56:37.385087,561552,-1782,-391,-110,-705,-496,-369,122,414,-220
136,0,2022-09-30T19:56:37.392353,561559,-1782,-391,-110,-705,-496,-369,122,414,-220
137,0,2022-09-30T19:56:37.398250,561564,-1782,-391,-110,-705,-496,-369,122,414,-220
138,0,2022-09-30T19:56:37.406365,561572,-1777,-394,-88,-713,-274,-402,122,414,-220
139,0,2022-09-30T19:56:37.413413,561581,-1777,-394,-88,-713,-274,-402,122,414,-220
140,0,2022-09-30T19:56:37.419437,561586,-1777,-394,-88,-713,-274,-402,122,414,-220
141,0,2022-09-30T19:56:37.425733,561592,-1780,-404,-72,-936,-261,-370,122,414,-220
142,0,2022-09-30T19:56:37.432390,561598,-1780,-404,-72,-936,-261,-370,122,414,-220
143,0,2022-09-30T19:56:37.438221,561605,-1780,-404,-72,-936,-261,-370,122,414,-220
144,0,2022-09-30T19:56:37.443865,561610,-1779,-403,-102,-1049,-611,-336,125,423,-235
145,0,2022-09-30T19:56:37.451192,561618,-1779,-403,-102,-1049,-611,-336,125,423,-235
146,0,2022-09-30T19:56:37.456936,561624,-1779,-403,-102,-1049,-611,-336,125,423,-235
147,0,2022-09-30T19:56:37.463300,561630,-1779,-388,-107,-933,-640,-348,125,423,-235
148,0,2022-09-30T19:56:37.471077,561638,-1779,-388,-107,-933,-640,-348,125,423,-235
149,0,2022-09-30T19:56:37.477106,561643,-1779,-388,-107,-933,-640,-348,125,423,-235
150,0,2022-09-30T19:56:37.482373,561649,-1777,-390,-95,-858,-512,-307,125,423,-235
151,0,2022-09-30T19:56:37.489415,561656,-1777,-390,-95,-858,-512,-307,125,423,-235
152,0,2022-09-30T19:56:37.496413,561662,-1777,-390,-95,-858,-512,-307,125,423,-235
153,0,2022-09-30T19:56:37.501954,561669,-1778,-406,-83,-1011,-541,-270,125,423,-235
154,0,2022-09-30T19:56:37.507807,561674,-1778,-406,-83,-1011,-541,-270,125,423,-235
155,0,2022-09-30T19:56:37.513048,561680,-1778,-406,-83,-1011,-541,-270,125,423,-235
156,0,2022-09-30T19:56:37.519236,561686,-1778,-406,-83,-1011,-541,-270,125,423,-235
157,0,2022-09-30T19:56:37.525349,561692,-1772,-405,-91,-1014,-645,-355,125,423,-235
158,0,2022-09-30T19:56:37.532371,561699,-1772,-405,-91,-1014,-645,-355,125,423,-235
159,0,2022-09-30T19:56:37.538562,561705,-1772,-405,-91,-1014,-645,-355,125,423,-235
160,0,2022-09-30T19:56:37.549207,561712,-1784,-400,-113,-972,-587,-451,125,423,-235
161,0,2022-09-30T19:56:37.557219,561724,-1784,-400,-113,-972,-587,-451,125,423,-235
162,0,2022-09-30T19:56:37.563600,561730,-1780,-395,-122,-748,-472,-511,125,423,-235
163,0,2022-09-30T19:56:37.572204,561738,-1780,-395,-122,-748,-472,-511,125,423,-235
164,0,2022-09-30T19:56:37.578662,561745,-1780,-395,-122,-748,-472,-511,125,423,-235
165,0,2022-09-30T19:56:37.585149,561752,-1774,-395,-89,-686,-281,-339,126,426,-224
166,0,2022-09-30T19:56:37.593244,561759,-1774,-395,-89,-686,-281,-339,126,426,-224
167,0,2022-09-30T19:56:37.598555,561766,-1774,-395,-89,-686,-281,-339,126,426,-224
168,0,2022-09-30T19:56:37.605651,561771,-1775,-393,-70,-881,-286,-164,126,426,-224
169,0,2022-09-30T19:56:37.613653,561780,-1775,-393,-70,-881,-286,-164,126,426,-224
170,0,2022-09-30T19:56:37.619224,561786,-1775,-393,-70,-881,-286,-164,126,426,-224
171,0,2022-09-30T19:56:37.626652,561794,-1779,-397,-103,-1145,-749,-188,126,426,-224
172,0,2022-09-30T19:56:37.635090,561802,-1779,-397,-103,-1145,-749,-188,126,426,-224
173,0,2022-09-30T19:56:37.640669,561808,-1779,-397,-103,-1145,-749,-188,126,426,-224
174,0,2022-09-30T19:56:37.646609,561813,-1792,-401,-135,-979,-810,-285,126,426,-224
175,0,2022-09-30T19:56:37.652376,561819,-1792,-401,-135,-979,-810,-285,126,426,-224
176,0,2022-09-30T19:56:37.658184,561825,-1792,-401,-135,-979,-810,-285,126,426,-224
177,0,2022-09-30T19:56:37.664094,561830,-1780,-401,-103,-815,-255,-444,126,426,-224
178,0,2022-09-30T19:56:37.671643,561839,-1780,-401,-103,-815,-255,-444,126,426,-224
179,0,2022-09-30T19:56:37.678236,561845,-1780,-401,-103,-815,-255,-444,126,426,-224
180,0,2022-09-30T19:56:37.683684,561851,-1762,-398,-77,-892,-181,-476,126,426,-224
181,0,2022-09-30T19:56:37.690756,561858,-1762,-398,-77,-892,-181,-476,126,426,-224
182,0,2022-09-30T19:56:37.695650,561863,-1762,-398,-77,-892,-181,-476,126,426,-224
183,0,2022-09-30T19:56:37.701238,561867,-1762,-398,-77,-892,-181,-476,126,426,-224
184,0,2022-09-30T19:56:37.707314,561873,-1774,-397,-78,-1101,-674,-261,123,421,-225
185,0,2022-09-30T19:56:37.715588,561882,-1774,-397,-78,-1101,-674,-261,123,421,-225
186,0,2022-09-30T19:56:37.720920,561888,-1774,-397,-78,-1101,-674,-261,123,421,-225
187,0,2022-09-30T19:56:37.727573,561894,-1785,-402,-119,-1282,-1009,-150,123,421,-225
188,0,2022-09-30T19:56:37.735576,561903,-1785,-402,-119,-1282,-1009,-150,123,421,-225
189,0,2022-09-30T19:56:37.742711,561909,-1786,-397,-125,-1051,-738,-272,123,421,-225
190,0,2022-09-30T19:56:37.750435,561917,-1786,-397,-125,-1051,-738,-272,123,421,-225
191,0,2022-09-30T19:56:37.756135,561923,-1786,-397,-125,-1051,-738,-272,123,421,-225
192,0,2022-09-30T19:56:37.761746,561929,-1788,-401,-89,-909,-351,-303,123,421,-225
193,0,2022-09-30T19:56:37.769323,561936,-1788,-401,-89,-909,-351,-303,123,421,-225
194,0,2022-09-30T19:56:37.774738,561942,-1788,-401,-89,-909,-351,-303,123,421,-225
195,0,2022-09-30T19:56:37.780726,561947,-1788,-401,-89,-909,-351,-303,123,421,-225
196,0,2022-09-30T19:56:37.787108,561954,-1773,-400,-98,-893,-479,-411,123,421,-225
197,0,2022-09-30T19:56:37.793891,561960,-1773,-400,-98,-893,-479,-411,123,421,-225
198,0,2022-09-30T19:56:37.799284,561967,-1773,-400,-98,-893,-479,-411,123,421,-225
199,0,2022-09-30T19:56:37.805333,561972,-1773,-400,-98,-893,-479,-411,123,421,-225
200,0,2022-09-30T19:56:37.810939,561978,-1773,-400,-98,-893,-479,-411,123,421,-225
201,0,2022-09-30T19:56:37.816001,561983,-1773,-400,-98,-893,-479,-411,123,421,-225
202,0,2022-09-30T19:56:37.821563,561988,-1773,-399,-90,-898,-516,-380,123,421,-225
203,0,2022-09-30T19:56:37.827390,561994,-1773,-399,-90,-898,-516,-380,123,421,-225
204,0,2022-09-30T19:56:37.834782,561999,-1773,-399,-90,-898,-516,-380,123,421,-225
205,0,2022-09-30T19:56:37.840332,562008,-1773,-399,-90,-898,-516,-380,123,421,-225
206,0,2022-09-30T19:56:37.845663,562013,-1782,-401,-93,-993,-533,-305,121,427,-229
207,0,2022-09-30T19:56:37.850658,562018,-1782,-401,-93,-993,-533,-305,121,427,-229
208,0,2022-09-30T19:56:37.856470,562023,-1782,-401,-93,-993,-533,-305,121,427,-229
209,0,2022-09-30T19:56:37.862504,562029,-1787,-408,-101,-1027,-549,-272,121,427,-229
210,0,2022-09-30T19:56:37.868205,562035,-1787,-408,-101,-1027,-549,-272,121,427,-229
211,0,2022-09-30T19:56:37.874309,562040,-1787,-408,-101,-1027,-549,-272,121,427,-229
212,0,2022-09-30T19:56:37.880072,562046,-1787,-408,-101,-1027,-549,-272,121,427,-229
213,0,2022-09-30T19:56:37.886111,562053,-1784,-396,-101,-915,-542,-425,121,427,-229
214,0,2022-09-30T19:56:37.894314,562061,-1784,-396,-101,-915,-542,-425,121,427,-229
215,0,2022-09-30T19:56:37.899736,562067,-1784,-396,-101,-915,-542,-425,121,427,-229
216,0,2022-09-30T19:56:37.907524,562074,-1776,-391,-94,-933,-501,-381,121,427,-229
217,0,2022-09-30T19:56:37.915396,562082,-1776,-391,-94,-933,-501,-381,121,427,-229
218,0,2022-09-30T19:56:37.921234,562088,-1776,-391,-94,-933,-501,-381,121,427,-229
219,0,2022-09-30T19:56:37.926938,562094,-1773,-397,-95,-1010,-569,-282,121,427,-229
220,0,2022-09-30T19:56:37.935326,562102,-1773,-397,-95,-1010,-569,-282,121,427,-229
221,0,2022-09-30T19:56:37.941185,562108,-1773,-397,-95,-1010,-569,-282,121,427,-229
222,0,2022-09-30T19:56:37.947463,562114,-1778,-398,-101,-1066,-649,-262,121,427,-229
223,0,2022-09-30T19:56:37.954992,562121,-1778,-398,-101,-1066,-649,-262,121,427,-229
224,0,2022-09-30T19:56:37.960197,562127,-1778,-398,-101,-1066,-649,-262,121,427,-229
225,0,2022-09-30T19:56:37.965838,562132,-1777,-400,-95,-1001,-566,-316,113,423,-227
226,0,2022-09-30T19:56:37.974777,562142,-1777,-400,-95,-1001,-566,-316,113,423,-227
227,0,2022-09-30T19:56:37.980451,562147,-1777,-400,-95,-1001,-566,-316,113,423,-227
228,0,2022-09-30T19:56:37.986063,562153,-1779,-398,-84,-1035,-519,-276,113,423,-227
229,0,2022-09-30T19:56:37.993409,562160,-1779,-398,-84,-1035,-519,-276,113,423,-227
230,0,2022-09-30T19:56:37.999073,562165,-1779,-398,-84,-1035,-519,-276,113,423,-227
231,0,2022-09-30T19:56:38.004823,562171,-1780,-401,-96,-1166,-641,-235,113,423,-227
232,0,2022-09-30T19:56:38.010636,562178,-1780,-401,-96,-1166,-641,-235,113,423,-227
233,0,2022-09-30T19:56:38.016712,562183,-1780,-401,-96,-1166,-641,-235,113,423,-227
234,0,2022-09-30T19:56:38.022382,562189,-1781,-398,-121,-1137,-704,-275,113,423,-227
235,0,2022-09-30T19:56:38.030285,562196,-1781,-398,-121,-1137,-704,-275,113,423,-227
236,0,2022-09-30T19:56:38.035875,562203,-1781,-398,-121,-1137,-704,-275,113,423,-227
237,0,2022-09-30T19:56:38.041326,562208,-1781,-398,-121,-1137,-704,-275,113,423,-227
238,0,2022-09-30T19:56:38.046027,562213,-1783,-397,-116,-987,-582,-319,113,423,-227
239,0,2022-09-30T19:56:38.052524,562220,-1783,-397,-116,-987,-582,-319,113,423,-227
240,0,2022-09-30T19:56:38.058750,562226,-1783,-397,-116,-987,-582,-319,113,423,-227
241,0,2022-09-30T19:56:38.064241,562231,-1779,-400,-105,-914,-456,-315,113,423,-227
242,0,2022-09-30T19:56:38.069997,562236,-1779,-400,-105,-914,-456,-315,113,423,-227
243,0,2022-09-30T19:56:38.074655,562242,-1779,-400,-105,-914,-456,-315,113,423,-227
244,0,2022-09-30T19:56:38.080828,562247,-1779,-400,-105,-914,-456,-315,113,423,-227
245,0,2022-09-30T19:56:38.086950,562253,-1780,-402,-92,-971,-454,-325,122,416,-224
246,0,2022-09-30T19:56:38.091896,562258,-1780,-402,-92,-971,-454,-325,122,416,-224
247,0,2022-09-30T19:56:38.097550,562265,-1780,-402,-92,-971,-454,-325,122,416,-224
248,0,2022-09-30T19:56:38.102689,562270,-1775,-399,-86,-1004,-527,-332,122,416,-224
249,0,2022-09-30T19:56:38.110257,562277,-1775,-399,-86,-1004,-527,-332,122,416,-224
250,0,2022-09-30T19:56:38.115773,562282,-1775,-399,-86,-1004,-527,-332,122,416,-224
251,0,2022-09-30T19:56:38.121072,562288,-1775,-399,-86,-1004,-527,-332,122,416,-224
252,0,2022-09-30T19:56:38.127743,562295,-1779,-396,-108,-1097,-611,-297,122,416,-224
253,0,2022-09-30T19:56:38.135011,562302,-1779,-396,-108,-1097,-611,-297,122,416,-224
254,0,2022-09-30T19:56:38.140253,562308,-1779,-396,-108,-1097,-611,-297,122,416,-224
255,0,2022-09-30T19:56:38.146924,562314,-1782,-401,-115,-1054,-627,-332,122,416,-224
256,0,2022-09-30T19:56:38.152934,562319,-1782,-401,-115,-1054,-627,-332,122,416,-224
257,0,2022-09-30T19:56:38.159277,562326,-1782,-401,-115,-1054,-627,-332,122,416,-224
258,0,2022-09-30T19:56:38.165400,562332,-1776,-399,-95,-995,-607,-365,122,416,-224
259,0,2022-09-30T19:56:38.173030,562340,-1776,-399,-95,-995,-607,-365,122,416,-224
260,0,2022-09-30T19:56:38.178811,562345,-1776,-399,-95,-995,-607,-365,122,416,-224
261,0,2022-09-30T19:56:38.185605,562353,-1775,-402,-97,-1049,-633,-302,122,416,-224
262,0,2022-09-30T19:56:38.191696,562359,-1775,-402,-97,-1049,-633,-302,122,416,-224
263,0,2022-09-30T19:56:38.196659,562364,-1775,-402,-97,-1049,-633,-302,122,416,-224
264,0,2022-09-30T19:56:38.202764,562370,-1778,-401,-101,-1011,-579,-303,122,416,-224
265,0,2022-09-30T19:56:38.207865,562375,-1778,-401,-101,-1011,-579,-303,122,416,-224
266,0,2022-09-30T19:56:38.212884,562380,-1778,-401,-101,-1011,-579,-303,122,416,-224
267,0,2022-09-30T19:56:38.218911,562385,-1778,-401,-101,-1011,-579,-303,122,416,-224
268,0,2022-09-30T19:56:38.224257,562392,-1776,-400,-93,-967,-509,-351,123,425,-221
269,0,2022-09-30T19:56:38.229827,562397,-1776,-400,-93,-967,-509,-351,123,425,-221
270,0,2022-09-30T19:56:38.234960,562402,-1776,-400,-93,-967,-509,-351,123,425,-221
271,0,2022-09-30T19:56:38.240093,562407,-1776,-400,-93,-967,-509,-351,123,425,-221
272,0,2022-09-30T19:56:38.245431,562412,-1781,-394,-105,-1028,-521,-336,123,425,-221
273,0,2022-09-30T19:56:38.251824,562419,-1781,-394,-105,-1028,-521,-336,123,425,-221
274,0,2022-09-30T19:56:38.257575,562424,-1781,-394,-105,-1028,-521,-336,123,425,-221
275,0,2022-09-30T19:56:38.262702,562429,-1771,-395,-99,-954,-536,-314,123,425,-221
276,0,2022-09-30T19:56:38.268517,562436,-1771,-395,-99,-954,-536,-314,123,425,-221
277,0,2022-09-30T19:56:38.273901,562441,-1771,-395,-99,-954,-536,-314,123,425,-221
278,0,2022-09-30T19:56:38.280554,562447,-1771,-395,-99,-954,-536,-314,123,425,-221
279,0,2022-09-30T19:56:38.286144,562453,-1776,-398,-94,-1067,-536,-183,123,425,-221
280,0,2022-09-30T19:56:38.291412,562458,-1776,-398,-94,-1067,-536,-183,123,425,-221
281,0,2022-09-30T19:56:38.296504,562464,-1776,-398,-94,-1067,-536,-183,123,425,-221
282,0,2022-09-30T19:56:38.302832,562470,-1779,-394,-102,-1083,-608,-239,123,425,-221
283,0,2022-09-30T19:56:38.310238,562478,-1779,-394,-102,-1083,-608,-239,123,425,-221
284,0,2022-09-30T19:56:38.315514,562483,-1779,-394,-102,-1083,-608,-239,123,425,-221
285,0,2022-09-30T19:56:38.321351,562488,-1779,-394,-102,-1083,-608,-239,123,425,-221
286,0,2022-09-30T19:56:38.327550,562494,-1784,-400,-112,-1091,-643,-321,123,425,-221
287,0,2022-09-30T19:56:38.332813,562500,-1784,-400,-112,-1091,-643,-321,123,425,-221
288,0,2022-09-30T19:56:38.337963,562505,-1784,-400,-112,-1091,-643,-321,123,425,-221
289,0,2022-09-30T19:56:38.343285,562510,-1783,-397,-121,-1003,-552,-392,121,429,-225
290,0,2022-09-30T19:56:38.348350,562515,-1783,-397,-121,-1003,-552,-392,121,429,-225
291,0,2022-09-30T19:56:38.353292,562521,-1783,-397,-121,-1003,-552,-392,121,429,-225
292,0,2022-09-30T19:56:38.359149,562526,-1783,-397,-121,-1003,-552,-392,121,429,-225
293,0,2022-09-30T19:56:38.365646,562533,-1783,-394,-110,-844,-469,-387,121,429,-225
294,0,2022-09-30T19:56:38.375545,562538,-1783,-394,-110,-844,-469,-387,121,429,-225
295,0,2022-09-30T19:56:38.388397,562548,-1783,-394,-110,-844,-469,-387,121,429,-225
296,0,2022-09-30T19:56:38.404583,562571,-1772,-397,-85,-1031,-587,-307,121,429,-225
297,0,2022-09-30T19:56:38.418248,562585,-1772,-397,-85,-1031,-587,-307,121,429,-225
298,0,2022-09-30T19:56:38.428847,562595,-1774,-395,-108,-1368,-763,-94,121,429,-225
299,0,2022-09-30T19:56:38.439423,562607,-1774,-395,-108,-1368,-763,-94,121,429,-225
300,0,2022-09-30T19:56:38.449276,562616,-1797,-388,-130,-983,-850,-263,121,429,-225
301,0,2022-09-30T19:56:38.456149,562623,-1797,-388,-130,-983,-850,-263,121,429,-225
302,0,2022-09-30T19:56:38.462548,562630,-1775,-393,-102,-898,-401,-373,121,429,-225
303,0,2022-09-30T19:56:38.468993,562636,-1775,-393,-102,-898,-401,-373,121,429,-225
304,0,2022-09-30T19:56:38.474062,562641,-1775,-393,-102,-898,-401,-373,121,429,-225
305,0,2022-09-30T19:56:38.480187,562647,-1775,-393,-102,-898,-401,-373,121,429,-225
306,0,2022-09-30T19:56:38.486429,562654,-1772,-409,-76,-1082,-326,-290,123,419,-225
307,0,2022-09-30T19:56:38.492900,562660,-1772,-409,-76,-1082,-326,-290,123,419,-225
308,0,2022-09-30T19:56:38.498095,562665,-1772,-409,-76,-1082,-326,-290,123,419,-225
309,0,2022-09-30T19:56:38.504581,562671,-1770,-401,-95,-1087,-675,-385,123,419,-225
310,0,2022-09-30T19:56:38.511513,562678,-1770,-401,-95,-1087,-675,-385,123,419,-225
311,0,2022-09-30T19:56:38.516913,562683,-1770,-401,-95,-1087,-675,-385,123,419,-225
312,0,2022-09-30T19:56:38.524665,562692,-1790,-397,-102,-956,-683,-345,123,419,-225
313,0,2022-09-30T19:56:38.531203,562698,-1790,-397,-102,-956,-683,-345,123,419,-225
314,0,2022-09-30T19:56:38.536388,562704,-1790,-397,-102,-956,-683,-345,123,419,-225
315,0,2022-09-30T19:56:38.543802,562711,-1786,-403,-100,-1088,-543,-285,123,419,-225
316,0,2022-09-30T19:56:38.551268,562718,-1786,-403,-100,-1088,-543,-285,123,419,-225
317,0,2022-09-30T19:56:38.556649,562723,-1786,-403,-100,-1088,-543,-285,123,419,-225
318,0,2022-09-30T19:56:38.564417,562732,-1780,-402,-107,-1120,-607,-315,123,419,-225
319,0,2022-09-30T19:56:38.571813,562739,-1780,-402,-107,-1120,-607,-315,123,419,-225
320,0,2022-09-30T19:56:38.576857,562744,-1780,-402,-107,-1120,-607,-315,123,419,-225
321,0,2022-09-30T19:56:38.583239,562750,-1784,-395,-112,-1001,-594,-329,123,419,-225
322,0,2022-09-30T19:56:38.589492,562756,-1784,-395,-112,-1001,-594,-329,123,419,-225
323,0,2022-09-30T19:56:38.595042,562762,-1784,-395,-112,-1001,-594,-329,123,419,-225
324,0,2022-09-30T19:56:38.600653,562767,-1784,-395,-112,-1001,-594,-329,123,419,-225
325,0,2022-09-30T19:56:38.607867,562775,-1771,-394,-87,-896,-426,-417,116,418,-230
326,0,2022-09-30T19:56:38.615065,562782,-1771,-394,-87,-896,-426,-417,116,418,-230
327,0,2022-09-30T19:56:38.621038,562788,-1771,-394,-87,-896,-426,-417,116,418,-230
328,0,2022-09-30T19:56:38.628348,562795,-1770,-397,-95,-983,-416,-327,116,418,-230
329,0,2022-09-30T19:56:38.635643,562802,-1770,-397,-95,-983,-416,-327,116,418,-230
330,0,2022-09-30T19:56:38.641464,562808,-1770,-397,-95,-983,-416,-327,116,418,-230
331,0,2022-09-30T19:56:38.648907,562816,-1785,-397,-101,-928,-591,-337,116,418,-230
332,0,2022-09-30T19:56:38.655766,562823,-1785,-397,-101,-928,-591,-337,116,418,-230
333,0,2022-09-30T19:56:38.662901,562830,-1785,-389,-110,-946,-607,-325,116,418,-230
334,0,2022-09-30T19:56:38.671107,562838,-1785,-389,-110,-946,-607,-325,116,418,-230
335,0,2022-09-30T19:56:38.676651,562844,-1785,-389,-110,-946,-607,-325,116,418,-230
336,0,2022-09-30T19:56:38.683578,562850,-1781,-388,-108,-1050,-502,-296,116,418,-230
337,0,2022-09-30T19:56:38.690551,562857,-1781,-388,-108,-1050,-502,-296,116,418,-230
338,0,2022-09-30T19:56:38.695451,562863,-1781,-388,-108,-1050,-502,-296,116,418,-230
339,0,2022-09-30T19:56:38.701678,562869,-1781,-388,-108,-1050,-502,-296,116,418,-230
340,0,2022-09-30T19:56:38.706802,562874,-1777,-399,-96,-1136,-611,-288,116,418,-230
341,0,2022-09-30T19:56:38.713324,562880,-1777,-399,-96,-1136,-611,-288,116,418,-230
342,0,2022-09-30T19:56:38.718657,562886,-1777,-399,-96,-1136,-611,-288,116,418,-230
343,0,2022-09-30T19:56:38.724448,562892,-1777,-401,-92,-1175,-715,-263,116,418,-230
344,0,2022-09-30T19:56:38.730545,562897,-1777,-401,-92,-1175,-715,-263,116,418,-230
345,0,2022-09-30T19:56:38.735383,562903,-1777,-401,-92,-1175,-715,-263,116,418,-230
346,0,2022-09-30T19:56:38.740769,562908,-1777,-401,-92,-1175,-715,-263,116,418,-230
347,0,2022-09-30T19:56:38.746851,562914,-1778,-402,-102,-1197,-657,-271,120,418,-230
348,0,2022-09-30T19:56:38.753601,562920,-1778,-402,-102,-1197,-657,-271,120,418,-230
349,0,2022-09-30T19:56:38.760041,562927,-1778,-402,-102,-1197,-657,-271,120,418,-230
350,0,2022-09-30T19:56:38.767319,562934,-1778,-395,-104,-1059,-606,-332,120,418,-230
351,0,2022-09-30T19:56:38.774381,562941,-1778,-395,-104,-1059,-606,-332,120,418,-230
352,0,2022-09-30T19:56:38.779986,562947,-1778,-395,-104,-1059,-606,-332,120,418,-230
353,0,2022-09-30T19:56:38.786766,562954,-1782,-401,-95,-979,-503,-362,120,418,-230
354,0,2022-09-30T19:56:38.793379,562961,-1782,-401,-95,-979,-503,-362,120,418,-230
355,0,2022-09-30T19:56:38.799618,562967,-1782,-401,-95,-979,-503,-362,120,418,-230
356,0,2022-09-30T19:56:38.804773,562972,-1777,-400,-94,-945,-420,-412,120,418,-230
357,0,2022-09-30T19:56:38.811111,562978,-1777,-400,-94,-945,-420,-412,120,418,-230
358,0,2022-09-30T19:56:38.816093,562983,-1777,-400,-94,-945,-420,-412,120,418,-230
359,0,2022-09-30T19:56:38.822258,562990,-1777,-400,-94,-945,-420,-412,120,418,-230
360,0,2022-09-30T19:56:38.827198,562995,-1772,-393,-89,-1050,-512,-326,120,418,-230
361,0,2022-09-30T19:56:38.833565,563001,-1772,-393,-89,-1050,-512,-326,120,418,-230
362,0,2022-09-30T19:56:38.839535,563007,-1772,-393,-89,-1050,-512,-326,120,418,-230
363,0,2022-09-30T19:56:38.845883,563013,-1773,-396,-100,-1198,-765,-158,120,418,-230
364,0,2022-09-30T19:56:38.852334,563019,-1773,-396,-100,-1198,-765,-158,120,418,-230
365,0,2022-09-30T19:56:38.858849,563025,-1773,-396,-100,-1198,-765,-158,120,418,-230
366,0,2022-09-30T19:56:38.865310,563033,-1786,-400,-115,-1208,-823,-137,129,423,-223
367,0,2022-09-30T19:56:38.872347,563039,-1786,-400,-115,-1208,-823,-137,129,423,-223
368,0,2022-09-30T19:56:38.877588,563045,-1786,-400,-115,-1208,-823,-137,129,423,-223
369,0,2022-09-30T19:56:38.884736,563051,-1787,-398,-108,-1012,-578,-315,129,423,-223
370,0,2022-09-30T19:56:38.891919,563058,-1787,-398,-108,-1012,-578,-315,129,423,-223
371,0,2022-09-30T19:56:38.897560,563064,-1787,-398,-108,-1012,-578,-315,129,423,-223
372,0,2022-09-30T19:56:38.904304,563070,-1775,-403,-95,-918,-400,-465,129,423,-223
373,0,2022-09-30T19:56:38.911318,563078,-1775,-403,-95,-918,-400,-465,129,423,-223
374,0,2022-09-30T19:56:38.917090,563084,-1775,-403,-95,-918,-400,-465,129,423,-223
375,0,2022-09-30T19:56:38.924788,563091,-1774,-398,-102,-1028,-439,-382,129,423,-223
376,0,2022-09-30T19:56:38.931758,563098,-1774,-398,-102,-1028,-439,-382,129,423,-223
377,0,2022-09-30T19:56:38.937912,563104,-1774,-398,-102,-1028,-439,-382,129,423,-223
378,0,2022-09-30T19:56:38.945068,563111,-1777,-396,-105,-1064,-572,-331,129,423,-223
379,0,2022-09-30T19:56:38.952039,563119,-1777,-396,-105,-1064,-572,-331,129,423,-223
380,0,2022-09-30T19:56:38.958096,563125,-1777,-396,-105,-1064,-572,-331,129,423,-223
381,0,2022-09-30T19:56:38.967646,563134,-1779,-396,-96,-1085,-629,-276,129,423,-223
382,0,2022-09-30T19:56:38.974839,563141,-1779,-396,-96,-1085,-629,-276,129,423,-223
383,0,2022-09-30T19:56:38.981916,563148,-1779,-396,-96,-1085,-629,-276,129,423,-223
384,0,2022-09-30T19:56:38.989105,563155,-1775,-396,-94,-1126,-672,-254,122,420,-226
385,0,2022-09-30T19:56:38.996430,563163,-1775,-396,-94,-1126,-672,-254,122,420,-226
386,0,2022-09-30T19:56:39.002533,563169,-1775,-396,-94,-1126,-672,-254,122,420,-226
387,0,2022-09-30T19:56:39.009711,563176,-1780,-399,-105,-1130,-685,-249,122,420,-226
388,0,2022-09-30T19:56:39.017097,563183,-1780,-399,-105,-1130,-685,-249,122,420,-226
389,0,2022-09-30T19:56:39.026103,563191,-1787,-400,-109,-1067,-584,-309,122,420,-226
390,0,2022-09-30T19:56:39.034116,563200,-1787,-400,-109,-1067,-584,-309,122,420,-226
391,0,2022-09-30T19:56:39.042173,563208,-1787,-400,-109,-1067,-584,-309,122,420,-226
392,0,2022-09-30T19:56:39.048980,563216,-1775,-394,-98,-905,-468,-421,122,420,-226
393,0,2022-09-30T19:56:39.056076,563223,-1775,-394,-98,-905,-468,-421,122,420,-226
394,0,2022-09-30T19:56:39.061580,563228,-1775,-394,-98,-905,-468,-421,122,420,-226
395,0,2022-09-30T19:56:39.069093,563236,-1777,-399,-91,-1040,-538,-308,122,420,-226
396,0,2022-09-30T19:56:39.076262,563243,-1777,-399,-91,-1040,-538,-308,122,420,-226
397,0,2022-09-30T19:56:39.087785,563255,-1778,-400,-103,-1130,-679,-207,122,420,-226
398,0,2022-09-30T19:56:39.097531,563265,-1778,-400,-103,-1130,-679,-207,122,420,-226
399,0,2022-09-30T19:56:39.107747,563274,-1785,-398,-103,-1108,-661,-251,122,420,-226
400,0,2022-09-30T19:56:39.117450,563284,-1785,-398,-103,-1108,-661,-251,122,420,-226
401,0,2022-09-30T19:56:39.128042,563295,-1779,-395,-107,-1102,-605,-303,122,420,-224
402,0,2022-09-30T19:56:39.136601,563303,-1779,-395,-107,-1102,-605,-303,122,420,-224
403,0,2022-09-30T19:56:39.145137,563311,-1780,-402,-99,-971,-506,-381,122,420,-224
404,0,2022-09-30T19:56:39.155840,563321,-1780,-402,-99,-971,-506,-381,122,420,-224
405,0,2022-09-30T19:56:39.165190,563331,-1772,-396,-84,-980,-476,-406,122,420,-224
406,0,2022-09-30T19:56:39.185113,563342,-1772,-396,-84,-980,-476,-406,122,420,-224
407,0,2022-09-30T19:56:39.193411,563360,-1773,-397,-95,-1115,-568,-263,122,420,-224
408,0,2022-09-30T19:56:39.205103,563372,-1777,-399,-103,-1137,-679,-191,122,420,-224
409,0,2022-09-30T19:56:39.215205,563382,-1777,-399,-103,-1137,-679,-191,122,420,-224
410,0,2022-09-30T19:56:39.220958,563388,-1777,-399,-103,-1137,-679,-191,122,420,-224
411,0,2022-09-30T19:56:39.229788,563396,-1780,-396,-107,-1096,-670,-238,122,420,-224
412,0,2022-09-30T19:56:39.236297,563403,-1780,-396,-107,-1096,-670,-238,122,420,-224
413,0,2022-09-30T19:56:39.241900,563408,-1780,-396,-107,-1096,-670,-238,122,420,-224
414,0,2022-09-30T19:56:39.247474,563415,-1783,-396,-98,-1093,-606,-253,112,420,-232
415,0,2022-09-30T19:56:39.253831,563421,-1783,-396,-98,-1093,-606,-253,112,420,-232
416,0,2022-09-30T19:56:39.260619,563428,-1783,-396,-98,-1093,-606,-253,112,420,-232
417,0,2022-09-30T19:56:39.265940,563433,-1776,-393,-98,-1067,-590,-303,112,420,-232
418,0,2022-09-30T19:56:39.272359,563439,-1776,-393,-98,-1067,-590,-303,112,420,-232
419,0,2022-09-30T19:56:39.278121,563445,-1776,-393,-98,-1067,-590,-303,112,420,-232
420,0,2022-09-30T19:56:39.284848,563451,-1784,-390,-105,-1132,-582,-229,112,420,-232
421,0,2022-09-30T19:56:39.293919,563461,-1784,-390,-105,-1132,-582,-229,112,420,-232
422,0,2022-09-30T19:56:39.301366,563469,-1784,-390,-105,-1132,-582,-229,112,420,-232
423,0,2022-09-30T19:56:39.308053,563475,-1785,-403,-112,-1046,-551,-279,112,420,-232
424,0,2022-09-30T19:56:39.316379,563482,-1785,-403,-112,-1046,-551,-279,112,420,-232
425,0,2022-09-30T19:56:39.321702,563489,-1785,-403,-112,-1046,-551,-279,112,420,-232
426,0,2022-09-30T19:56:39.326970,563494,-1775,-394,-90,-968,-496,-391,112,420,-232
427,0,2022-09-30T19:56:39.335522,563503,-1775,-394,-90,-968,-496,-391,112,420,-232
428,0,2022-09-30T19:56:39.343699,563511,-1776,-397,-86,-1085,-550,-288,112,420,-232
429,0,2022-09-30T19:56:39.352574,563519,-1776,-397,-86,-1085,-550,-288,112,420,-232
430,0,2022-09-30T19:56:39.361152,563528,-1776,-397,-86,-1085,-550,-288,112,420,-232
431,0,2022-09-30T19:56:39.369598,563536,-1787,-399,-97,-1215,-647,-201,112,420,-232
432,0,2022-09-30T19:56:39.376154,563544,-1787,-399,-97,-1215,-647,-201,112,420,-232
433,0,2022-09-30T19:56:39.383321,563549,-1787,-399,-97,-1215,-647,-201,112,420,-232
434,0,2022-09-30T19:56:39.389196,563556,-1787,-393,-106,-1050,-580,-342,127,427,-229
435,0,2022-09-30T19:56:39.398283,563561,-1787,-393,-106,-1050,-580,-342,127,427,-229
436,0,2022-09-30T19:56:39.409856,563576,-1785,-389,-100,-985,-514,-364,127,427,-229
437,0,2022-09-30T19:56:39.420267,563586,-1785,-389,-100,-985,-514,-364,127,427,-229
438,0,2022-09-30T19:56:39.430925,563597,-1779,-396,-99,-1031,-589,-316,127,427,-229
439,0,2022-09-30T19:56:39.437926,563605,-1779,-396,-99,-1031,-589,-316,127,427,-229
440,0,2022-09-30T19:56:39.444434,563610,-1776,-396,-98,-1020,-614,-341,127,427,-229
441,0,2022-09-30T19:56:39.451122,563618,-1776,-396,-98,-1020,-614,-341,127,427,-229
442,0,2022-09-30T19:56:39.456579,563623,-1776,-396,-98,-1020,-614,-341,127,427,-229
443,0,2022-09-30T19:56:39.463924,563631,-1772,-397,-88,-1064,-559,-319,127,427,-229
444,0,2022-09-30T19:56:39.470291,563638,-1772,-397,-88,-1064,-559,-319,127,427,-229
445,0,2022-09-30T19:56:39.475520,563643,-1772,-397,-88,-1064,-559,-319,127,427,-229
446,0,2022-09-30T19:56:39.481225,563648,-1772,-397,-88,-1064,-559,-319,127,427,-229
447,0,2022-09-30T19:56:39.487254,563654,-1778,-395,-92,-1154,-604,-269,127,427,-229
448,0,2022-09-30T19:56:39.494380,563661,-1778,-395,-92,-1154,-604,-269,127,427,-229
449,0,2022-09-30T19:56:39.499698,563666,-1778,-395,-92,-1154,-604,-269,127,427,-229
450,0,2022-09-30T19:56:39.507016,563674,-1781,-395,-97,-1192,-626,-222,125,417,-229
451,0,2022-09-30T19:56:39.515272,563683,-1781,-395,-97,-1192,-626,-222,125,417,-229
452,0,2022-09-30T19:56:39.521740,563689,-1781,-395,-97,-1192,-626,-222,125,417,-229
453,0,2022-09-30T19:56:39.528369,563695,-1786,-394,-98,-1151,-598,-249,125,417,-229
454,0,2022-09-30T19:56:39.535818,563702,-1786,-394,-98,-1151,-598,-249,125,417,-229
455,0,2022-09-30T19:56:39.541398,563708,-1786,-394,-98,-1151,-598,-249,125,417,-229
456,0,2022-09-30T19:56:39.547992,563716,-1777,-393,-104,-1084,-580,-319,125,417,-229
457,0,2022-09-30T19:56:39.554536,563722,-1777,-393,-104,-1084,-580,-319,125,417,-229
458,0,2022-09-30T19:56:39.560000,563727,-1777,-393,-104,-1084,-580,-319,125,417,-229
459,0,2022-09-30T19:56:39.566357,563734,-1776,-392,-96,-1059,-546,-300,125,417,-229
460,0,2022-09-30T19:56:39.572738,563740,-1776,-392,-96,-1059,-546,-300,125,417,-229
461,0,2022-09-30T19:56:39.578237,563745,-1776,-392,-96,-1059,-546,-300,125,417,-229
462,0,2022-09-30T19:56:39.585547,563752,-1782,-395,-93,-1161,-604,-220,125,417,-229
463,0,2022-09-30T19:56:39.592167,563760,-1782,-395,-93,-1161,-604,-220,125,417,-229
464,0,2022-09-30T19:56:39.596967,563765,-1782,-395,-93,-1161,-604,-220,125,417,-229
465,0,2022-09-30T19:56:39.604116,563771,-1784,-403,-101,-1193,-643,-229,125,417,-229
466,0,2022-09-30T19:56:39.611654,563778,-1784,-403,-101,-1193,-643,-229,125,417,-229
467,0,2022-09-30T19:56:39.617781,563784,-1784,-403,-101,-1193,-643,-229,125,417,-229
468,0,2022-09-30T19:56:39.627334,563793,-1784,-399,-109,-1093,-622,-329,125,417,-229
469,0,2022-09-30T19:56:39.637107,563801,-1784,-399,-109,-1093,-622,-329,125,417,-229
470,0,2022-09-30T19:56:39.643551,563811,-1778,-391,-97,-1028,-524,-357,125,417,-229
471,0,2022-09-30T19:56:39.652620,563820,-1778,-391,-97,-1028,-524,-357,127,423,-231
472,0,2022-09-30T19:56:39.658293,563825,-1778,-391,-97,-1028,-524,-357,127,423,-231
473,0,2022-09-30T19:56:39.666192,563833,-1778,-392,-100,-1009,-558,-339,127,423,-231
474,0,2022-09-30T19:56:39.671332,563838,-1778,-392,-100,-1009,-558,-339,127,423,-231
475,0,2022-09-30T19:56:39.676461,563844,-1778,-392,-100,-1009,-558,-339,127,423,-231
476,0,2022-09-30T19:56:39.683764,563850,-1778,-392,-100,-1009,-558,-339,127,423,-231
477,0,2022-09-30T19:56:39.688671,563856,-1779,-398,-90,-1061,-581,-288,127,423,-231
478,0,2022-09-30T19:56:39.694995,563862,-1779,-398,-90,-1061,-581,-288,127,423,-231
479,0,2022-09-30T19:56:39.700562,563867,-1779,-398,-90,-1061,-581,-288,127,423,-231
480,0,2022-09-30T19:56:39.706106,563873,-1774,-393,-94,-1104,-603,-270,127,423,-231
481,0,2022-09-30T19:56:39.712721,563879,-1774,-393,-94,-1104,-603,-270,127,423,-231
482,0,2022-09-30T19:56:39.718059,563886,-1774,-393,-94,-1104,-603,-270,127,423,-231
483,0,2022-09-30T19:56:39.724441,563892,-1784,-396,-102,-1133,-637,-175,127,423,-231
484,0,2022-09-30T19:56:39.731300,563898,-1784,-396,-102,-1133,-637,-175,127,423,-231
485,0,2022-09-30T19:56:39.736460,563904,-1784,-396,-102,-1133,-637,-175,127,423,-231
486,0,2022-09-30T19:56:39.743056,563910,-1784,-396,-102,-1133,-637,-175,127,423,-231
487,0,2022-09-30T19:56:39.748346,563915,-1782,-400,-110,-1133,-626,-244,127,423,-231
488,0,2022-09-30T19:56:39.755315,563922,-1782,-400,-110,-1133,-626,-244,127,423,-231
489,0,2022-09-30T19:56:39.760980,563929,-1782,-400,-110,-1133,-626,-244,127,423,-231
490,0,2022-09-30T19:56:39.767470,563935,-1776,-401,-109,-1066,-604,-358,117,413,-225
491,0,2022-09-30T19:56:39.774216,563941,-1776,-401,-109,-1066,-604,-358,117,413,-225
492,0,2022-09-30T19:56:39.779740,563947,-1776,-401,-109,-1066,-604,-358,117,413,-225
493,0,2022-09-30T19:56:39.786203,563953,-1778,-397,-102,-1056,-523,-272,117,413,-225
494,0,2022-09-30T19:56:39.792700,563959,-1778,-397,-102,-1056,-523,-272,117,413,-225
495,0,2022-09-30T19:56:39.797689,563965,-1778,-397,-102,-1056,-523,-272,117,413,-225
496,0,2022-09-30T19:56:39.807250,563974,-1778,-397,-102,-1056,-523,-272,117,413,-225
497,0,2022-09-30T19:56:39.813022,563980,-1778,-397,-102,-1056,-523,-272,117,413,-225
498,0,2022-09-30T19:56:39.818733,563986,-1778,-397,-102,-1056,-523,-272,117,413,-225
499,0,2022-09-30T19:56:39.824257,563991,-1779,-391,-97,-1059,-543,-273,117,413,-225
500,0,2022-09-30T19:56:39.832964,563999,-1779,-391,-97,-1059,-543,-273,117,413,-225
501,0,2022-09-30T19:56:39.840351,564007,-1779,-391,-97,-1059,-543,-273,117,413,-225
502,0,2022-09-30T19:56:39.847764,564015,-1781,-391,-95,-1055,-569,-273,117,413,-225
503,0,2022-09-30T19:56:39.856590,564023,-1781,-391,-95,-1055,-569,-273,117,413,-225
504,0,2022-09-30T19:56:39.862514,564029,-1781,-391,-95,-1055,-569,-273,117,413,-225
505,0,2022-09-30T19:56:39.868021,564035,-1776,-396,-103,-995,-565,-421,117,413,-225
506,0,2022-09-30T19:56:39.874719,564042,-1776,-396,-103,-995,-565,-421,117,413,-225
507,0,2022-09-30T19:56:39.881065,564047,-1776,-396,-103,-995,-565,-421,117,413,-225
508,0,2022-09-30T19:56:39.888270,564056,-1779,-399,-96,-952,-509,-477,121,419,-229
509,0,2022-09-30T19:56:39.894941,564062,-1779,-399,-96,-952,-509,-477,121,419,-229
510,0,2022-09-30T19:56:39.900619,564068,-1779,-399,-96,-952,-509,-477,121,419,-229
511,0,2022-09-30T19:56:39.907489,564074,-1777,-394,-97,-953,-508,-383,121,419,-229
512,0,2022-09-30T19:56:39.913682,564081,-1777,-394,-97,-953,-508,-383,121,419,-229
513,0,2022-09-30T19:56:39.919936,564087,-1777,-394,-97,-953,-508,-383,121,419,-229
514,0,2022-09-30T19:56:39.926095,564093,-1787,-391,-98,-1033,-520,-152,121,419,-229
515,0,2022-09-30T19:56:39.932722,564100,-1787,-391,-98,-1033,-520,-152,121,419,-229
516,0,2022-09-30T19:56:39.938545,564106,-1787,-391,-98,-1033,-520,-152,121,419,-229
517,0,2022-09-30T19:56:39.945751,564113,-1781,-396,-104,-1042,-630,-198,121,419,-229
518,0,2022-09-30T19:56:39.952337,564119,-1781,-396,-104,-1042,-630,-198,121,419,-229
519,0,2022-09-30T19:56:39.958217,564125,-1781,-396,-104,-1042,-630,-198,121,419,-229
520,0,2022-09-30T19:56:39.965045,564132,-1785,-395,-104,-1045,-592,-301,121,419,-229
521,0,2022-09-30T19:56:39.971893,564139,-1785,-395,-104,-1045,-592,-301,121,419,-229
522,0,2022-09-30T19:56:39.977187,564145,-1785,-395,-104,-1045,-592,-301,121,419,-229
523,0,2022-09-30T19:56:39.988345,564155,-1777,-397,-111,-1029,-521,-373,121,419,-229
524,0,2022-09-30T19:56:39.994916,564162,-1777,-397,-111,-1029,-521,-373,121,419,-229
525,0,2022-09-30T19:56:40.001181,564167,-1777,-397,-111,-1029,-521,-373,121,419,-229
526,0,2022-09-30T19:56:40.008839,564175,-1778,-390,-103,-960,-518,-374,121,419,-229
527,0,2022-09-30T19:56:40.015328,564183,-1778,-390,-103,-960,-518,-374,121,419,-229
528,0,2022-09-30T19:56:40.020610,564188,-1778,-390,-103,-960,-518,-374,121,419,-229
529,0,2022-09-30T19:56:40.026881,564194,-1783,-391,-100,-1009,-564,-295,119,429,-229
530,0,2022-09-30T19:56:40.033239,564200,-1783,-391,-100,-1009,-564,-295,119,429,-229
531,0,2022-09-30T19:56:40.039746,564207,-1783,-391,-100,-1009,-564,-295,119,429,-229
532,0,2022-09-30T19:56:40.045025,564212,-1784,-396,-104,-1032,-579,-260,119,429,-229
533,0,2022-09-30T19:56:40.051174,564218,-1784,-396,-104,-1032,-579,-260,119,429,-229
534,0,2022-09-30T19:56:40.057029,564225,-1784,-396,-104,-1032,-579,-260,119,429,-229
535,0,2022-09-30T19:56:40.065240,564231,-1777,-400,-99,-1006,-593,-378,119,429,-229
536,0,2022-09-30T19:56:40.072330,564239,-1777,-400,-99,-1006,-593,-378,119,429,-229
537,0,2022-09-30T19:56:40.078573,564245,-1777,-400,-99,-1006,-593,-378,119,429,-229
538,0,2022-09-30T19:56:40.088420,564255,-1777,-396,-108,-1017,-583,-348,119,429,-229
539,0,2022-09-30T19:56:40.095082,564262,-1777,-396,-108,-1017,-583,-348,119,429,-229
540,0,2022-09-30T19:56:40.100860,564268,-1777,-396,-108,-1017,-583,-348,119,429,-229
541,0,2022-09-30T19:56:40.108099,564275,-1782,-394,-107,-913,-471,-272,119,429,-229
542,0,2022-09-30T19:56:40.115402,564282,-1782,-394,-107,-913,-471,-272,119,429,-229
543,0,2022-09-30T19:56:40.120522,564288,-1782,-394,-107,-913,-471,-272,119,429,-229
544,0,2022-09-30T19:56:40.126994,564294,-1781,-390,-100,-817,-470,-390,119,429,-229
545,0,2022-09-30T19:56:40.133966,564300,-1781,-390,-100,-817,-470,-390,119,429,-229
546,0,2022-09-30T19:56:40.139609,564306,-1781,-390,-100,-817,-470,-390,119,429,-229
547,0,2022-09-30T19:56:40.146831,564314,-1779,-396,-82,-899,-527,-359,123,421,-219
548,0,2022-09-30T19:56:40.152946,564321,-1779,-396,-82,-899,-527,-359,123,421,-219
549,0,2022-09-30T19:56:40.158448,564326,-1779,-396,-82,-899,-527,-359,123,421,-219
550,0,2022-09-30T19:56:40.164963,564332,-1776,-399,-92,-1065,-638,-318,123,421,-219
551,0,2022-09-30T19:56:40.171569,564339,-1776,-399,-92,-1065,-638,-318,123,421,-219
552,0,2022-09-30T19:56:40.177244,564344,-1776,-399,-92,-1065,-638,-318,123,421,-219
553,0,2022-09-30T19:56:40.186685,564354,-1779,-397,-104,-1041,-612,-394,123,421,-219
554,0,2022-09-30T19:56:40.194953,564363,-1779,-397,-104,-1041,-612,-394,123,421,-219
555,0,2022-09-30T19:56:40.201720,564369,-1779,-397,-104,-1041,-612,-394,123,421,-219
556,0,2022-09-30T19:56:40.208749,564375,-1780,-392,-94,-870,-512,-512,123,421,-219
557,0,2022-09-30T19:56:40.215781,564383,-1780,-392,-94,-870,-512,-512,123,421,-219
558,0,2022-09-30T19:56:40.221249,564388,-1780,-392,-94,-870,-512,-512,123,421,-219
559,0,2022-09-30T19:56:40.227096,564393,-1772,-392,-89,-949,-475,-334,123,421,-219
560,0,2022-09-30T19:56:40.232962,564400,-1772,-392,-89,-949,-475,-334,123,421,-219
561,0,2022-09-30T19:56:40.239133,564406,-1772,-392,-89,-949,-475,-334,123,421,-219
562,0,2022-09-30T19:56:40.244572,564412,-1781,-391,-99,-1100,-602,-140,123,421,-219
563,0,2022-09-30T19:56:40.251080,564418,-1781,-391,-99,-1100,-602,-140,123,421,-219
564,0,2022-09-30T19:56:40.257495,564423,-1781,-391,-99,-1100,-602,-140,123,421,-219
565,0,2022-09-30T19:56:40.263043,564430,-1781,-391,-99,-1100,-602,-140,123,421,-219
566,0,2022-09-30T19:56:40.268516,564435,-1787,-395,-108,-1037,-608,-189,123,421,-219
567,0,2022-09-30T19:56:40.275431,564443,-1787,-395,-108,-1037,-608,-189,123,421,-219
568,0,2022-09-30T19:56:40.282595,564448,-1787,-395,-108,-1037,-608,-189,123,421,-219
569,0,2022-09-30T19:56:40.289845,564457,-1778,-395,-107,-945,-474,-355,116,414,-226
570,0,2022-09-30T19:56:40.296733,564464,-1778,-395,-107,-945,-474,-355,116,414,-226
571,0,2022-09-30T19:56:40.303212,564470,-1778,-395,-107,-945,-474,-355,116,414,-226
572,0,2022-09-30T19:56:40.308909,564475,-1776,-388,-109,-869,-468,-400,116,414,-226
573,0,2022-09-30T19:56:40.316194,564484,-1776,-388,-109,-869,-468,-400,116,414,-226
574,0,2022-09-30T19:56:40.321344,564488,-1776,-388,-109,-869,-468,-400,116,414,-226
575,0,2022-09-30T19:56:40.326359,564494,-1786,-396,-94,-887,-471,-299,116,414,-226
576,0,2022-09-30T19:56:40.333345,564500,-1786,-396,-94,-887,-471,-299,116,414,-226
577,0,2022-09-30T19:56:40.338703,564506,-1786,-396,-94,-887,-471,-299,116,414,-226
578,0,2022-09-30T19:56:40.345160,564512,-1787,-395,-90,-1007,-496,-293,116,414,-226
579,0,2022-09-30T19:56:40.355026,564521,-1787,-395,-90,-1007,-496,-293,116,414,-226
580,0,2022-09-30T19:56:40.364243,564529,-1787,-395,-90,-1007,-496,-293,116,414,-226
581,0,2022-09-30T19:56:40.371492,564539,-1778,-398,-105,-1150,-618,-248,116,414,-226
582,0,2022-09-30T19:56:40.379021,564546,-1778,-398,-105,-1150,-618,-248,116,414,-226
583,0,2022-09-30T19:56:40.388233,564555,-1788,-397,-132,-1053,-691,-268,116,414,-226
584,0,2022-09-30T19:56:40.394809,564562,-1788,-397,-132,-1053,-691,-268,116,414,-226
585,0,2022-09-30T19:56:40.400887,564568,-1788,-397,-132,-1053,-691,-268,116,414,-226
586,0,2022-09-30T19:56:40.410046,564577,-1782,-389,-104,-818,-486,-397,126,420,-228
587,0,2022-09-30T19:56:40.419933,564587,-1782,-389,-104,-818,-486,-397,126,420,-228
588,0,2022-09-30T19:56:40.429219,564594,-1768,-392,-79,-749,-423,-466,126,420,-228
589,0,2022-09-30T19:56:40.438726,564604,-1768,-392,-79,-749,-423,-466,126,420,-228
590,0,2022-09-30T19:56:40.446179,564614,-1775,-401,-82,-1034,-531,-206,126,420,-228
591,0,2022-09-30T19:56:40.453729,564621,-1775,-401,-82,-1034,-531,-206,126,420,-228
592,0,2022-09-30T19:56:40.461103,564628,-1775,-401,-82,-1034,-531,-206,126,420,-228
593,0,2022-09-30T19:56:40.468184,564635,-1783,-405,-113,-1186,-676,-178,126,420,-228
594,0,2022-09-30T19:56:40.474900,564642,-1783,-405,-113,-1186,-676,-178,126,420,-228
595,0,2022-09-30T19:56:40.481748,564647,-1783,-405,-113,-1186,-676,-178,126,420,-228
596,0,2022-09-30T19:56:40.489264,564657,-1782,-401,-111,-858,-585,-516,126,420,-228
597,0,2022-09-30T19:56:40.495681,564663,-1782,-401,-111,-858,-585,-516,126,420,-228
598,0,2022-09-30T19:56:40.500868,564668,-1782,-401,-111,-858,-585,-516,126,420,-228
599,0,2022-09-30T19:56:40.507840,564675,-1777,-389,-89,-724,-416,-589,126,420,-228
600,0,2022-09-30T19:56:40.515227,564682,-1777,-389,-89,-724,-416,-589,126,420,-228
601,0,2022-09-30T19:56:40.521444,564687,-1777,-389,-89,-724,-416,-589,126,420,-228
602,0,2022-09-30T19:56:40.527878,564695,-1771,-385,-98,-996,-550,-298,126,420,-228
603,0,2022-09-30T19:56:40.534865,564702,-1771,-385,-98,-996,-550,-298,126,420,-228
604,0,2022-09-30T19:56:40.540249,564708,-1771,-385,-98,-996,-550,-298,126,420,-228
605,0,2022-09-30T19:56:40.546608,564714,-1788,-394,-122,-1171,-722,-44,126,424,-224
606,0,2022-09-30T19:56:40.553749,564721,-1788,-394,-122,-1171,-722,-44,126,424,-224
607,0,2022-09-30T19:56:40.560223,564727,-1788,-394,-122,-1171,-722,-44,126,424,-224
608,0,2022-09-30T19:56:40.568546,564736,-1788,-400,-114,-829,-504,-286,126,424,-224
609,0,2022-09-30T19:56:40.575333,564743,-1788,-400,-114,-829,-504,-286,126,424,-224
610,0,2022-09-30T19:56:40.581200,564748,-1788,-400,-114,-829,-504,-286,126,424,-224
611,0,2022-09-30T19:56:40.586868,564754,-1766,-390,-81,-695,-244,-478,126,424,-224
612,0,2022-09-30T19:56:40.594335,564761,-1766,-390,-81,-695,-244,-478,126,424,-224
613,0,2022-09-30T19:56:40.599772,564767,-1766,-390,-81,-695,-244,-478,126,424,-224
614,0,2022-09-30T19:56:40.605277,564772,-1775,-397,-97,-952,-408,-299,126,424,-224
615,0,2022-09-30T19:56:40.612119,564780,-1775,-397,-97,-952,-408,-299,126,424,-224
616,0,2022-09-30T19:56:40.617578,564785,-1775,-397,-97,-952,-408,-299,126,424,-224
617,0,2022-09-30T19:56:40.627543,564795,-1790,-400,-113,-996,-703,-292,126,424,-224
618,0,2022-09-30T19:56:40.635614,564802,-1790,-400,-113,-996,-703,-292,126,424,-224
619,0,2022-09-30T19:56:40.644967,564810,-1790,-400,-113,-996,-703,-292,126,424,-224
620,0,2022-09-30T19:56:40.651853,564819,-1785,-390,-118,-944,-668,-409,126,424,-224
621,0,2022-09-30T19:56:40.660918,564828,-1785,-390,-118,-944,-668,-409,126,424,-224
622,0,2022-09-30T19:56:40.671666,564838,-1781,-399,-102,-918,-503,-331,117,423,-225
623,0,2022-09-30T19:56:40.678735,564846,-1781,-399,-102,-918,-503,-331,117,423,-225
624,0,2022-09-30T19:56:40.693234,564859,-1774,-401,-88,-905,-551,-288,117,423,-225
625,0,2022-09-30T19:56:40.701096,564868,-1774,-401,-88,-905,-551,-288,117,423,-225
626,0,2022-09-30T19:56:40.708730,564876,-1776,-400,-88,-919,-575,-335,117,423,-225
627,0,2022-09-30T19:56:40.714288,564881,-1776,-400,-88,-919,-575,-335,117,423,-225
628,0,2022-09-30T19:56:40.720364,564887,-1776,-400,-88,-919,-575,-335,117,423,-225
629,0,2022-09-30T19:56:40.727642,564894,-1778,-399,-98,-979,-540,-324,117,423,-225
630,0,2022-09-30T19:56:40.735702,564902,-1778,-399,-98,-979,-540,-324,117,423,-225
631,0,2022-09-30T19:56:40.741800,564909,-1778,-399,-98,-979,-540,-324,117,423,-225
632,0,2022-09-30T19:56:40.748964,564916,-1780,-395,-99,-863,-535,-356,117,423,-225
633,0,2022-09-30T19:56:40.756364,564923,-1780,-395,-99,-863,-535,-356,117,423,-225
634,0,2022-09-30T19:56:40.763395,564930,-1780,-395,-99,-863,-535,-356,117,423,-225
635,0,2022-09-30T19:56:40.771749,564938,-1783,-390,-103,-885,-521,-316,117,423,-225
636,0,2022-09-30T19:56:40.779516,564946,-1783,-390,-103,-885,-521,-316,117,423,-225
637,0,2022-09-30T19:56:40.790361,564957,-1789,-394,-103,-878,-503,-277,117,425,-229
638,0,2022-09-30T19:56:40.799530,564966,-1789,-394,-103,-878,-503,-277,117,425,-229
639,0,2022-09-30T19:56:40.806164,564973,-1779,-403,-96,-821,-501,-337,117,425,-229
640,0,2022-09-30T19:56:40.815850,564982,-1779,-403,-96,-821,-501,-337,117,425,-229
641,0,2022-09-30T19:56:40.823117,564989,-1779,-403,-96,-821,-501,-337,117,425,-229
642,0,2022-09-30T19:56:40.831797,564998,-1782,-396,-103,-866,-519,-352,117,425,-229
643,0,2022-09-30T19:56:40.837832,565004,-1782,-396,-103,-866,-519,-352,117,425,-229
644,0,2022-09-30T19:56:40.844562,565011,-1782,-396,-103,-866,-519,-352,117,425,-229
645,0,2022-09-30T19:56:40.851051,565017,-1783,-405,-111,-850,-421,-349,117,425,-229
646,0,2022-09-30T19:56:40.859447,565026,-1783,-405,-111,-850,-421,-349,117,425,-229
647,0,2022-09-30T19:56:40.867485,565033,-1783,-396,-104,-664,-394,-498,117,425,-229
648,0,2022-09-30T19:56:40.873028,565040,-1783,-396,-104,-664,-394,-498,117,425,-229
649,0,2022-09-30T19:56:40.879546,565046,-1783,-396,-104,-664,-394,-498,117,425,-229
650,0,2022-09-30T19:56:40.889266,565056,-1775,-391,-91,-755,-377,-457,117,425,-229
651,0,2022-09-30T19:56:40.899060,565065,-1775,-391,-91,-755,-377,-457,117,425,-229
652,0,2022-09-30T19:56:40.909190,565075,-1772,-391,-84,-872,-533,-315,117,425,-229
653,0,2022-09-30T19:56:40.918128,565085,-1772,-391,-84,-872,-533,-315,117,425,-229
654,0,2022-09-30T19:56:40.927120,565093,-1781,-392,-100,-983,-696,-244,118,420,-230
655,0,2022-09-30T19:56:40.936712,565103,-1781,-392,-100,-983,-696,-244,118,420,-230
656,0,2022-09-30T19:56:40.944183,565109,-1781,-392,-100,-983,-696,-244,118,420,-230
657,0,2022-09-30T19:56:40.952693,565118,-1787,-395,-108,-925,-645,-289,118,420,-230
658,0,2022-09-30T19:56:40.961106,565128,-1787,-395,-108,-925,-645,-289,118,420,-230
659,0,2022-09-30T19:56:40.968242,565136,-1780,-391,-99,-809,-508,-339,118,420,-230
660,0,2022-09-30T19:56:40.976189,565143,-1780,-391,-99,-809,-508,-339,118,420,-230
661,0,2022-09-30T19:56:40.982594,565149,-1780,-391,-99,-809,-508,-339,118,420,-230
662,0,2022-09-30T19:56:40.989426,565157,-1777,-392,-97,-907,-503,-207,118,420,-230
663,0,2022-09-30T19:56:40.995755,565164,-1777,-392,-97,-907,-503,-207,118,420,-230
664,0,2022-09-30T19:56:41.001139,565169,-1777,-392,-97,-907,-503,-207,118,420,-230
665,0,2022-09-30T19:56:41.007549,565175,-1785,-394,-113,-982,-600,-152,118,420,-230
666,0,2022-09-30T19:56:41.015766,565182,-1785,-394,-113,-982,-600,-152,118,420,-230
667,0,2022-09-30T19:56:41.023302,565190,-1785,-394,-113,-982,-600,-152,118,420,-230
668,0,2022-09-30T19:56:41.028548,565196,-1778,-394,-104,-832,-510,-335,118,420,-230
669,0,2022-09-30T19:56:41.035803,565202,-1778,-394,-104,-832,-510,-335,118,420,-230
670,0,2022-09-30T19:56:41.041335,565209,-1778,-394,-104,-832,-510,-335,118,420,-230
671,0,2022-09-30T19:56:41.047484,565215,-1777,-393,-85,-845,-412,-362,120,420,-224
672,0,2022-09-30T19:56:41.054423,565221,-1777,-393,-85,-845,-412,-362,120,420,-224
673,0,2022-09-30T19:56:41.060401,565227,-1777,-393,-85,-845,-412,-362,120,420,-224
674,0,2022-09-30T19:56:41.067560,565234,-1787,-397,-89,-954,-529,-339,120,420,-224
675,0,2022-09-30T19:56:41.076332,565242,-1787,-397,-89,-954,-529,-339,120,420,-224
676,0,2022-09-30T19:56:41.083324,565250,-1787,-397,-89,-954,-529,-339,120,420,-224
677,0,2022-09-30T19:56:41.091796,565258,-1782,-398,-100,-986,-592,-393,120,420,-224
678,0,2022-09-30T19:56:41.100007,565266,-1782,-398,-100,-986,-592,-393,120,420,-224
679,0,2022-09-30T19:56:41.109245,565276,-1781,-391,-99,-938,-578,-394,120,420,-224
680,0,2022-09-30T19:56:41.117813,565284,-1781,-391,-99,-938,-578,-394,120,420,-224
681,0,2022-09-30T19:56:41.126784,565293,-1777,-392,-99,-864,-548,-350,120,420,-224
682,0,2022-09-30T19:56:41.136675,565303,-1777,-392,-99,-864,-548,-350,120,420,-224
683,0,2022-09-30T19:56:41.142380,565309,-1777,-392,-99,-864,-548,-350,120,420,-224
684,0,2022-09-30T19:56:41.150265,565317,-1779,-389,-96,-849,-547,-326,120,420,-224
685,0,2022-09-30T19:56:41.157993,565324,-1779,-389,-96,-849,-547,-326,120,420,-224
686,0,2022-09-30T19:56:41.168254,565335,-1778,-392,-97,-885,-557,-278,120,420,-224
687,0,2022-09-30T19:56:41.176482,565343,-1778,-392,-97,-885,-557,-278,120,420,-224
688,0,2022-09-30T19:56:41.183406,565349,-1778,-392,-97,-885,-557,-278,120,420,-224
689,0,2022-09-30T19:56:41.192288,565359,-1784,-392,-92,-885,-490,-323,112,420,-228
690,0,2022-09-30T19:56:41.200307,565367,-1784,-392,-92,-885,-490,-323,112,420,-228
691,0,2022-09-30T19:56:41.209031,565374,-1781,-394,-91,-896,-482,-387,112,420,-228
692,0,2022-09-30T19:56:41.216635,565384,-1781,-394,-91,-896,-482,-387,112,420,-228
693,0,2022-09-30T19:56:41.224771,565390,-1781,-394,-91,-896,-482,-387,112,420,-228
694,0,2022-09-30T19:56:41.232373,565399,-1777,-393,-103,-989,-525,-347,112,420,-228
695,0,2022-09-30T19:56:41.240041,565407,-1777,-393,-103,-989,-525,-347,112,420,-228
696,0,2022-09-30T19:56:41.248240,565414,-1778,-389,-107,-1032,-581,-280,112,420,-228
697,0,2022-09-30T19:56:41.256290,565424,-1778,-389,-107,-1032,-581,-280,112,420,-228
698,0,2022-09-30T19:56:41.264491,565431,-1778,-389,-107,-1032,-581,-280,112,420,-228
699,0,2022-09-30T19:56:41.272724,565439,-1779,-394,-109,-1030,-561,-282,112,420,-228
700,0,2022-09-30T19:56:41.280617,565447,-1779,-394,-109,-1030,-561,-282,112,420,-228
701,0,2022-09-30T19:56:41.291364,565458,-1779,-394,-109,-1030,-561,-282,112,420,-228
702,0,2022-09-30T19:56:41.297249,565465,-1779,-394,-109,-1030,-561,-282,112,420,-228
703,0,2022-09-30T19:56:41.306617,565474,-1780,-395,-87,-907,-502,-406,114,414,-226
704,0,2022-09-30T19:56:41.314858,565482,-1780,-395,-87,-907,-502,-406,114,414,-226
705,0,2022-09-30T19:56:41.320924,565488,-1780,-395,-87,-907,-502,-406,114,414,-226
706,0,2022-09-30T19:56:41.331128,565497,-1780,-394,-91,-1011,-553,-309,114,414,-226
707,0,2022-09-30T19:56:41.340090,565507,-1780,-394,-91,-1011,-553,-309,114,414,-226
708,0,2022-09-30T19:56:41.348920,565516,-1781,-394,-105,-1003,-587,-276,114,414,-226
709,0,2022-09-30T19:56:41.356136,565523,-1781,-394,-105,-1003,-587,-276,114,414,-226
710,0,2022-09-30T19:56:41.363675,565530,-1781,-394,-105,-1003,-587,-276,114,414,-226
711,0,2022-09-30T19:56:41.371306,565538,-1780,-395,-98,-945,-583,-317,114,414,-226
712,0,2022-09-30T19:56:41.380527,565547,-1780,-395,-98,-945,-583,-317,114,414,-226
713,0,2022-09-30T19:56:41.391657,565558,-1774,-393,-98,-919,-574,-341,114,414,-226
714,0,2022-09-30T19:56:41.398765,565566,-1774,-393,-98,-919,-574,-341,114,414,-226
715,0,2022-09-30T19:56:41.405085,565571,-1774,-393,-98,-919,-574,-341,114,414,-226
716,0,2022-09-30T19:56:41.411747,565578,-1778,-394,-95,-974,-531,-287,114,414,-226
717,0,2022-09-30T19:56:41.418764,565586,-1778,-394,-95,-974,-531,-287,114,414,-226
718,0,2022-09-30T19:56:41.427763,565595,-1788,-393,-95,-1022,-548,-289,114,414,-226
719,0,2022-09-30T19:56:41.438962,565603,-1788,-393,-95,-1022,-548,-289,114,414,-226
720,0,2022-09-30T19:56:41.447018,565613,-1781,-396,-95,-987,-535,-387,122,422,-234
721,0,2022-09-30T19:56:41.455757,565621,-1781,-396,-95,-987,-535,-387,122,422,-234
722,0,2022-09-30T19:56:41.462490,565628,-1781,-396,-95,-987,-535,-387,122,422,-234
723,0,2022-09-30T19:56:41.472768,565639,-1779,-390,-93,-1035,-503,-293,122,422,-234
724,0,2022-09-30T19:56:41.481089,565648,-1779,-390,-93,-1035,-503,-293,122,422,-234
725,0,2022-09-30T19:56:41.491113,565658,-1782,-395,-80,-1051,-509,-225,122,422,-234
726,0,2022-09-30T19:56:41.499345,565665,-1782,-395,-80,-1051,-509,-225,122,422,-234
727,0,2022-09-30T19:56:41.507646,565673,-1780,-393,-105,-1171,-658,-323,122,422,-234
728,0,2022-09-30T19:56:41.515812,565683,-1780,-393,-105,-1171,-658,-323,122,422,-234
729,0,2022-09-30T19:56:41.523199,565689,-1780,-393,-105,-1171,-658,-323,122,422,-234
730,0,2022-09-30T19:56:41.531013,565698,-1781,-390,-105,-1061,-655,-346,122,422,-234
731,0,2022-09-30T19:56:41.539243,565705,-1781,-390,-105,-1061,-655,-346,122,422,-234
732,0,2022-09-30T19:56:41.546076,565712,-1781,-390,-105,-1061,-655,-346,122,422,-234
733,0,2022-09-30T19:56:41.552042,565719,-1783,-399,-101,-995,-518,-332,122,422,-234
734,0,2022-09-30T19:56:41.560776,565728,-1783,-399,-101,-995,-518,-332,122,422,-234
735,0,2022-09-30T19:56:41.566787,565734,-1782,-396,-100,-960,-468,-388,113,421,-229
736,0,2022-09-30T19:56:41.575696,565741,-1782,-396,-100,-960,-468,-388,113,421,-229
737,0,2022-09-30T19:56:41.582923,565749,-1782,-396,-100,-960,-468,-388,113,421,-229
738,0,2022-09-30T19:56:41.614118,565775,-1776,-392,-109,-1066,-629,-159,113,421,-229
739,0,2022-09-30T19:56:41.627531,565794,-1786,-392,-112,-1065,-619,-192,113,421,-229
740,0,2022-09-30T19:56:41.639236,565807,-1786,-392,-112,-1065,-619,-192,113,421,-229
741,0,2022-09-30T19:56:41.649674,565817,-1783,-401,-90,-1096,-499,-367,113,421,-229
742,0,2022-09-30T19:56:41.661920,565829,-1783,-401,-90,-1096,-499,-367,113,421,-229
743,0,2022-09-30T19:56:41.669377,565836,-1773,-390,-85,-1079,-523,-376,113,421,-229
744,0,2022-09-30T19:56:41.677489,565844,-1773,-390,-85,-1079,-523,-376,113,421,-229
745,0,2022-09-30T19:56:41.686573,565854,-1773,-389,-94,-1176,-500,-263,117,423,-235
746,0,2022-09-30T19:56:41.694818,565861,-1773,-389,-94,-1176,-500,-263,117,423,-235
747,0,2022-09-30T19:56:41.701460,565868,-1773,-389,-94,-1176,-500,-263,117,423,-235
748,0,2022-09-30T19:56:41.709277,565876,-1778,-395,-108,-1209,-653,-233,117,423,-235
749,0,2022-09-30T19:56:41.716977,565884,-1778,-395,-108,-1209,-653,-233,117,423,-235
750,0,2022-09-30T19:56:41.725941,565893,-1778,-395,-108,-1209,-653,-233,117,423,-235
751,0,2022-09-30T19:56:41.734268,565901,-1782,-398,-105,-941,-700,-491,117,423,-235
752,0,2022-09-30T19:56:41.743374,565910,-1782,-398,-105,-941,-700,-491,117,423,-235
753,0,2022-09-30T19:56:41.753532,565920,-1773,-393,-92,-1031,-512,-412,117,423,-235
754,0,2022-09-30T19:56:41.761796,565928,-1773,-393,-92,-1031,-512,-412,117,423,-235
755,0,2022-09-30T19:56:41.769723,565937,-1779,-397,-88,-1144,-589,-223,117,423,-235
756,0,2022-09-30T19:56:41.779024,565945,-1779,-397,-88,-1144,-589,-223,117,423,-235
757,0,2022-09-30T19:56:41.791383,565958,-1787,-395,-100,-1183,-652,-145,117,423,-235
758,0,2022-09-30T19:56:41.799909,565966,-1787,-395,-100,-1183,-652,-145,117,423,-235
759,0,2022-09-30T19:56:41.807693,565975,-1778,-393,-111,-1149,-607,-248,117,423,-235
760,0,2022-09-30T19:56:41.815994,565983,-1778,-393,-111,-1149,-607,-248,117,423,-235
761,0,2022-09-30T19:56:41.823912,565991,-1778,-393,-111,-1149,-607,-248,117,423,-235
762,0,2022-09-30T19:56:41.832925,565999,-1774,-391,-91,-1035,-539,-332,119,421,-223
763,0,2022-09-30T19:56:41.841441,566008,-1774,-391,-91,-1035,-539,-332,119,421,-223
764,0,2022-09-30T19:56:41.849023,566014,-1775,-401,-95,-1030,-575,-406,119,421,-223
765,0,2022-09-30T19:56:41.857451,566025,-1775,-401,-95,-1030,-575,-406,119,421,-223
766,0,2022-09-30T19:56:41.863798,566030,-1775,-401,-95,-1030,-575,-406,119,421,-223
767,0,2022-09-30T19:56:41.871882,566038,-1783,-399,-92,-1136,-578,-357,119,421,-223
768,0,2022-09-30T19:56:41.879790,566046,-1783,-399,-92,-1136,-578,-357,119,421,-223
769,0,2022-09-30T19:56:41.889299,566056,-1785,-386,-97,-1200,-565,-267,119,421,-223
770,0,2022-09-30T19:56:41.897327,566064,-1785,-386,-97,-1200,-565,-267,119,421,-223
771,0,2022-09-30T19:56:41.903784,566070,-1785,-386,-97,-1200,-565,-267,119,421,-223
772,0,2022-09-30T19:56:41.910386,566077,-1784,-393,-109,-1246,-657,-203,119,421,-223
773,0,2022-09-30T19:56:41.918384,566085,-1784,-393,-109,-1246,-657,-203,119,421,-223
774,0,2022-09-30T19:56:41.926082,566093,-1784,-393,-109,-1246,-657,-203,119,421,-223
775,0,2022-09-30T19:56:41.931835,566098,-1781,-398,-106,-1110,-644,-263,119,421,-223
776,0,2022-09-30T19:56:41.939597,566107,-1781,-398,-106,-1110,-644,-263,119,421,-223
777,0,2022-09-30T19:56:41.946583,566114,-1773,-396,-81,-1060,-542,-407,119,419,-225
778,0,2022-09-30T19:56:41.952740,566120,-1773,-396,-81,-1060,-542,-407,119,419,-225
779,0,2022-09-30T19:56:41.958062,566125,-1773,-396,-81,-1060,-542,-407,119,419,-225
780,0,2022-09-30T19:56:41.964609,566132,-1773,-396,-81,-1060,-542,-407,119,419,-225
781,0,2022-09-30T19:56:41.969648,566137,-1776,-393,-98,-1180,-636,-298,119,419,-225
782,0,2022-09-30T19:56:41.975810,566144,-1776,-393,-98,-1180,-636,-298,119,419,-225
783,0,2022-09-30T19:56:41.981387,566149,-1776,-393,-98,-1180,-636,-298,119,419,-225
784,0,2022-09-30T19:56:41.988334,566155,-1789,-398,-110,-1201,-653,-198,119,419,-225
785,0,2022-09-30T19:56:41.995105,566162,-1789,-398,-110,-1201,-653,-198,119,419,-225
786,0,2022-09-30T19:56:42.000189,566168,-1789,-398,-110,-1201,-653,-198,119,419,-225
787,0,2022-09-30T19:56:42.007089,566174,-1782,-386,-98,-1054,-528,-348,119,419,-225
788,0,2022-09-30T19:56:42.013605,566181,-1782,-386,-98,-1054,-528,-348,119,419,-225
789,0,2022-09-30T19:56:42.018777,566187,-1782,-386,-98,-1054,-528,-348,119,419,-225
790,0,2022-09-30T19:56:42.025996,566194,-1778,-386,-94,-1160,-534,-301,119,419,-225
791,0,2022-09-30T19:56:42.032293,566200,-1778,-386,-94,-1160,-534,-301,119,419,-225
792,0,2022-09-30T19:56:42.037310,566205,-1778,-386,-94,-1160,-534,-301,119,419,-225
793,0,2022-09-30T19:56:42.044032,566211,-1778,-386,-94,-1160,-534,-301,119,419,-225
794,0,2022-09-30T19:56:42.049373,566216,-1780,-400,-95,-1222,-719,-213,119,419,-225
795,0,2022-09-30T19:56:42.056025,566223,-1780,-400,-95,-1222,-719,-213,119,419,-225
796,0,2022-09-30T19:56:42.062628,566230,-1780,-400,-95,-1222,-719,-213,119,419,-225
797,0,2022-09-30T19:56:42.069056,566237,-1777,-395,-100,-1195,-706,-267,119,419,-225
798,0,2022-09-30T19:56:42.075154,566243,-1777,-395,-100,-1195,-706,-267,119,419,-225
799,0,2022-09-30T19:56:42.080623,566248,-1777,-395,-100,-1195,-706,-267,119,419,-225
800,0,2022-09-30T19:56:42.086547,566254,-1786,-394,-104,-1209,-603,-244,129,429,-223
801,0,2022-09-30T19:56:42.093060,566260,-1786,-394,-104,-1209,-603,-244,129,429,-223
802,0,2022-09-30T19:56:42.098580,566265,-1786,-394,-104,-1209,-603,-244,129,429,-223
803,0,2022-09-30T19:56:42.107186,566275,-1787,-400,-96,-1153,-577,-306,129,429,-223
804,0,2022-09-30T19:56:42.113546,566281,-1787,-400,-96,-1153,-577,-306,129,429,-223
805,0,2022-09-30T19:56:42.119107,566286,-1787,-400,-96,-1153,-577,-306,129,429,-223
806,0,2022-09-30T19:56:42.126626,566294,-1774,-390,-98,-1045,-486,-430,129,429,-223
807,0,2022-09-30T19:56:42.133102,566300,-1774,-390,-98,-1045,-486,-430,129,429,-223
808,0,2022-09-30T19:56:42.138320,566305,-1774,-390,-98,-1045,-486,-430,129,429,-223
809,0,2022-09-30T19:56:42.145096,566312,-1774,-390,-98,-1045,-486,-430,129,429,-223
810,0,2022-09-30T19:56:42.150311,566318,-1772,-399,-89,-1146,-500,-366,129,429,-223
811,0,2022-09-30T19:56:42.157156,566324,-1772,-399,-89,-1146,-500,-366,129,429,-223
812,0,2022-09-30T19:56:42.163107,566330,-1772,-399,-89,-1146,-500,-366,129,429,-223
813,0,2022-09-30T19:56:42.169984,566337,-1778,-397,-97,-1266,-673,-199,129,429,-223
814,0,2022-09-30T19:56:42.177140,566344,-1778,-397,-97,-1266,-673,-199,129,429,-223
815,0,2022-09-30T19:56:42.183472,566350,-1778,-397,-97,-1266,-673,-199,129,429,-223
816,0,2022-09-30T19:56:42.190861,566358,-1787,-392,-107,-1246,-707,-167,129,429,-223
817,0,2022-09-30T19:56:42.198536,566366,-1787,-392,-107,-1246,-707,-167,129,429,-223
818,0,2022-09-30T19:56:42.206495,566373,-1787,-392,-107,-1246,-707,-167,129,429,-223
819,0,2022-09-30T19:56:42.212635,566379,-1785,-393,-114,-1193,-630,-316,121,427,-225
820,0,2022-09-30T19:56:42.221298,566387,-1785,-393,-114,-1193,-630,-316,121,427,-225
821,0,2022-09-30T19:56:42.230634,566397,-1777,-403,-102,-1096,-580,-381,121,427,-225
822,0,2022-09-30T19:56:42.238164,566405,-1777,-403,-102,-1096,-580,-381,121,427,-225
823,0,2022-09-30T19:56:42.246235,566412,-1777,-403,-102,-1096,-580,-381,121,427,-225
824,0,2022-09-30T19:56:42.252230,566419,-1780,-396,-102,-1074,-545,-393,121,427,-225
825,0,2022-09-30T19:56:42.259777,566427,-1780,-396,-102,-1074,-545,-393,121,427,-225
826,0,2022-09-30T19:56:42.265662,566432,-1780,-396,-102,-1074,-545,-393,121,427,-225
827,0,2022-09-30T19:56:42.271788,566438,-1782,-396,-108,-1163,-574,-291,121,427,-225
828,0,2022-09-30T19:56:42.279203,566446,-1782,-396,-108,-1163,-574,-291,121,427,-225
829,0,2022-09-30T19:56:42.288605,566456,-1789,-400,-107,-1075,-541,-276,121,427,-225
830,0,2022-09-30T19:56:42.295596,566463,-1789,-400,-107,-1075,-541,-276,121,427,-225
831,0,2022-09-30T19:56:42.301447,566468,-1789,-400,-107,-1075,-541,-276,121,427,-225
832,0,2022-09-30T19:56:42.309468,566476,-1779,-396,-102,-1095,-534,-374,121,427,-225
833,0,2022-09-30T19:56:42.316664,566483,-1779,-396,-102,-1095,-534,-374,121,427,-225
834,0,2022-09-30T19:56:42.322567,566490,-1779,-396,-102,-1095,-534,-374,121,427,-225
835,0,2022-09-30T19:56:42.329799,566497,-1778,-393,-98,-1135,-659,-349,121,427,-225
836,0,2022-09-30T19:56:42.337871,566504,-1778,-393,-98,-1135,-659,-349,121,427,-225
837,0,2022-09-30T19:56:42.343315,566511,-1778,-393,-98,-1135,-659,-349,121,427,-225
838,0,2022-09-30T19:56:42.349569,566517,-1776,-394,-105,-1134,-700,-304,120,424,-218
839,0,2022-09-30T19:56:42.356052,566523,-1776,-394,-105,-1134,-700,-304,120,424,-218
840,0,2022-09-30T19:56:42.362318,566530,-1776,-394,-105,-1134,-700,-304,120,424,-218
841,0,2022-09-30T19:56:42.368476,566536,-1778,-388,-109,-1125,-621,-302,120,424,-218
842,0,2022-09-30T19:56:42.375192,566542,-1778,-388,-109,-1125,-621,-302,120,424,-218
843,0,2022-09-30T19:56:42.380346,566548,-1778,-388,-109,-1125,-621,-302,120,424,-218
844,0,2022-09-30T19:56:42.386526,566554,-1779,-398,-100,-1079,-535,-292,120,424,-218
845,0,2022-09-30T19:56:42.392699,566560,-1779,-398,-100,-1079,-535,-292,120,424,-218
846,0,2022-09-30T19:56:42.398066,566565,-1779,-398,-100,-1079,-535,-292,120,424,-218
847,0,2022-09-30T19:56:42.404409,566572,-1779,-398,-100,-1079,-535,-292,120,424,-218
848,0,2022-09-30T19:56:42.409910,566577,-1782,-399,-91,-1124,-550,-262,120,424,-218
849,0,2022-09-30T19:56:42.416689,566584,-1782,-399,-91,-1124,-550,-262,120,424,-218
850,0,2022-09-30T19:56:42.422586,566590,-1782,-399,-91,-1124,-550,-262,120,424,-218
851,0,2022-09-30T19:56:42.430361,566597,-1778,-400,-98,-1195,-634,-262,120,424,-218
852,0,2022-09-30T19:56:42.437166,566604,-1778,-400,-98,-1195,-634,-262,120,424,-218
853,0,2022-09-30T19:56:42.442859,566609,-1778,-400,-98,-1195,-634,-262,120,424,-218
854,0,2022-09-30T19:56:42.450124,566617,-1783,-400,-102,-1174,-608,-287,120,424,-218
855,0,2022-09-30T19:56:42.458006,566625,-1783,-400,-102,-1174,-608,-287,120,424,-218
856,0,2022-09-30T19:56:42.469182,566633,-1783,-400,-102,-1174,-608,-287,120,424,-218
857,0,2022-09-30T19:56:42.475781,566642,-1783,-400,-102,-1174,-608,-287,120,420,-222
858,0,2022-09-30T19:56:42.485565,566649,-1783,-400,-102,-1174,-608,-287,120,420,-222
859,0,2022-09-30T19:56:42.495410,566663,-1779,-391,-106,-988,-552,-362,120,420,-222
860,0,2022-09-30T19:56:42.501569,566668,-1779,-391,-106,-988,-552,-362,120,420,-222
861,0,2022-09-30T19:56:42.510226,566676,-1779,-399,-97,-984,-474,-326,120,420,-222
862,0,2022-09-30T19:56:42.523080,566689,-1779,-399,-97,-984,-474,-326,120,420,-222
863,0,2022-09-30T19:56:42.532668,566700,-1774,-398,-101,-1048,-522,-355,120,420,-222
864,0,2022-09-30T19:56:42.537818,566706,-1774,-398,-101,-1048,-522,-355,120,420,-222
865,0,2022-09-30T19:56:42.543971,566712,-1774,-398,-101,-1048,-522,-355,120,420,-222
866,0,2022-09-30T19:56:42.548802,566717,-1777,-394,-106,-1066,-574,-302,120,420,-222
867,0,2022-09-30T19:56:42.554807,566722,-1777,-394,-106,-1066,-574,-302,120,420,-222
868,0,2022-09-30T19:56:42.560042,566728,-1777,-394,-106,-1066,-574,-302,120,420,-222
869,0,2022-09-30T19:56:42.566255,566733,-1777,-394,-106,-1066,-574,-302,120,420,-222
870,0,2022-09-30T19:56:42.571312,566739,-1785,-392,-108,-1078,-617,-248,120,420,-222
871,0,2022-09-30T19:56:42.577404,566745,-1785,-392,-108,-1078,-617,-248,120,420,-222
872,0,2022-09-30T19:56:42.584629,566753,-1785,-392,-108,-1078,-617,-248,120,420,-222
873,0,2022-09-30T19:56:42.589647,566757,-1785,-396,-113,-1038,-607,-297,123,417,-233
874,0,2022-09-30T19:56:42.596437,566763,-1785,-396,-113,-1038,-607,-297,123,417,-233
875,0,2022-09-30T19:56:42.602615,566769,-1785,-396,-113,-1038,-607,-297,123,417,-233
876,0,2022-09-30T19:56:42.610298,566776,-1774,-401,-87,-984,-546,-369,123,417,-233
877,0,2022-09-30T19:56:42.617552,566785,-1774,-401,-87,-984,-546,-369,123,417,-233
878,0,2022-09-30T19:56:42.623859,566791,-1774,-401,-87,-984,-546,-369,123,417,-233
879,0,2022-09-30T19:56:42.631949,566799,-1776,-395,-106,-1035,-576,-333,123,417,-233
880,0,2022-09-30T19:56:42.639951,566807,-1776,-395,-106,-1035,-576,-333,123,417,-233
881,0,2022-09-30T19:56:42.648333,566815,-1783,-394,-112,-1054,-620,-255,123,417,-233
882,0,2022-09-30T19:56:42.656420,566823,-1783,-394,-112,-1054,-620,-255,123,417,-233
883,0,2022-09-30T19:56:42.662502,566830,-1783,-394,-112,-1054,-620,-255,123,417,-233
884,0,2022-09-30T19:56:42.671079,566838,-1789,-399,-103,-986,-530,-311,123,417,-233
885,0,2022-09-30T19:56:42.678291,566845,-1789,-399,-103,-986,-530,-311,123,417,-233
886,0,2022-09-30T19:56:42.687084,566854,-1789,-399,-103,-986,-530,-311,123,417,-233
887,0,2022-09-30T19:56:42.692711,566860,-1778,-403,-94,-985,-476,-424,123,417,-233
888,0,2022-09-30T19:56:42.699873,566866,-1778,-403,-94,-985,-476,-424,123,417,-233
889,0,2022-09-30T19:56:42.709156,566876,-1776,-398,-96,-1041,-568,-354,123,417,-233
890,0,2022-09-30T19:56:42.716674,566884,-1776,-398,-96,-1041,-568,-354,123,417,-233
891,0,2022-09-30T19:56:42.723126,566890,-1776,-398,-96,-1041,-568,-354,123,417,-233
892,0,2022-09-30T19:56:42.730434,566897,-1779,-396,-106,-1093,-692,-254,128,424,-226
893,0,2022-09-30T19:56:42.738206,566905,-1779,-396,-106,-1093,-692,-254,128,424,-226
894,0,2022-09-30T19:56:42.747201,566915,-1784,-395,-108,-983,-640,-323,128,424,-226
895,0,2022-09-30T19:56:42.754810,566922,-1784,-395,-108,-983,-640,-323,128,424,-226
896,0,2022-09-30T19:56:42.760717,566928,-1784,-395,-108,-983,-640,-323,128,424,-226
897,0,2022-09-30T19:56:42.767228,566934,-1780,-394,-93,-854,-493,-413,128,424,-226
898,0,2022-09-30T19:56:42.773944,566941,-1780,-394,-93,-854,-493,-413,128,424,-226
899,0,2022-09-30T19:56:42.779526,566946,-1780,-394,-93,-854,-493,-413,128,424,-226
900,0,2022-09-30T19:56:42.787004,566955,-1777,-394,-93,-1025,-497,-354,128,424,-226
901,0,2022-09-30T19:56:42.793205,566961,-1777,-394,-93,-1025,-497,-354,128,424,-226
902,0,2022-09-30T19:56:42.798260,566966,-1777,-394,-93,-1025,-497,-354,128,424,-226
903,0,2022-09-30T19:56:42.805529,566973,-1777,-394,-93,-1025,-497,-354,128,424,-226
904,0,2022-09-30T19:56:42.810598,566978,-1779,-397,-105,-1047,-631,-264,128,424,-226
905,0,2022-09-30T19:56:42.815517,566983,-1779,-397,-105,-1047,-631,-264,128,424,-226
906,0,2022-09-30T19:56:42.820663,566988,-1779,-397,-105,-1047,-631,-264,128,424,-226
907,0,2022-09-30T19:56:42.825819,566993,-1779,-397,-105,-1047,-631,-264,128,424,-226
908,0,2022-09-30T19:56:42.830880,566999,-1778,-395,-110,-1005,-609,-301,128,424,-226
909,0,2022-09-30T19:56:42.836848,567005,-1778,-395,-110,-1005,-609,-301,128,424,-226
910,0,2022-09-30T19:56:42.842954,567011,-1778,-395,-110,-1005,-609,-301,128,424,-226
911,0,2022-09-30T19:56:42.848990,567017,-1770,-389,-105,-968,-562,-397,123,421,-225
912,0,2022-09-30T19:56:42.855068,567022,-1770,-389,-105,-968,-562,-397,123,421,-225
913,0,2022-09-30T19:56:42.860829,567027,-1770,-389,-105,-968,-562,-397,123,421,-225
914,0,2022-09-30T19:56:42.869548,567036,-1777,-397,-87,-1016,-525,-273,123,421,-225
915,0,2022-09-30T19:56:42.876913,567044,-1777,-397,-87,-1016,-525,-273,123,421,-225
916,0,2022-09-30T19:56:42.883374,567050,-1777,-397,-87,-1016,-525,-273,123,421,-225
917,0,2022-09-30T19:56:42.889038,567056,-1780,-402,-93,-1127,-616,-239,123,421,-225
918,0,2022-09-30T19:56:42.896390,567063,-1780,-402,-93,-1127,-616,-239,123,421,-225
919,0,2022-09-30T19:56:42.902417,567069,-1780,-402,-93,-1127,-616,-239,123,421,-225
920,0,2022-09-30T19:56:42.912625,567079,-1785,-402,-105,-1069,-653,-323,123,421,-225
921,0,2022-09-30T19:56:42.920157,567087,-1785,-402,-105,-1069,-653,-323,123,421,-225
922,0,2022-09-30T19:56:42.928370,567095,-1782,-402,-102,-1018,-553,-420,123,421,-225
923,0,2022-09-30T19:56:42.935956,567103,-1782,-402,-102,-1018,-553,-420,123,421,-225
924,0,2022-09-30T19:56:42.941901,567109,-1782,-402,-102,-1018,-553,-420,123,421,-225
925,0,2022-09-30T19:56:42.950611,567117,-1780,-401,-104,-1032,-514,-436,123,421,-225
926,0,2022-09-30T19:56:42.958315,567124,-1780,-401,-104,-1032,-514,-436,123,421,-225
927,0,2022-09-30T19:56:42.964511,567131,-1780,-401,-104,-1032,-514,-436,123,421,-225
928,0,2022-09-30T19:56:42.972264,567139,-1773,-394,-107,-983,-517,-382,123,421,-225
929,0,2022-09-30T19:56:42.979698,567147,-1773,-394,-107,-983,-517,-382,123,421,-225
930,0,2022-09-30T19:56:42.987842,567154,-1773,-394,-107,-983,-517,-382,123,421,-225
931,0,2022-09-30T19:56:42.993876,567160,-1777,-396,-98,-974,-537,-336,124,426,-230
932,0,2022-09-30T19:56:43.001178,567169,-1777,-396,-98,-974,-537,-336,124,426,-230
933,0,2022-09-30T19:56:43.009607,567177,-1780,-401,-93,-960,-582,-306,124,426,-230
934,0,2022-09-30T19:56:43.017022,567184,-1780,-401,-93,-960,-582,-306,124,426,-230
935,0,2022-09-30T19:56:43.023111,567190,-1780,-401,-93,-960,-582,-306,124,426,-230
936,0,2022-09-30T19:56:43.029662,567197,-1776,-400,-91,-1000,-629,-352,124,426,-230
937,0,2022-09-30T19:56:43.036147,567204,-1776,-400,-91,-1000,-629,-352,124,426,-230
938,0,2022-09-30T19:56:43.041494,567208,-1776,-400,-91,-1000,-629,-352,124,426,-230
939,0,2022-09-30T19:56:43.047396,567216,-1782,-391,-104,-1004,-590,-338,124,426,-230
940,0,2022-09-30T19:56:43.054264,567222,-1782,-391,-104,-1004,-590,-338,124,426,-230
941,0,2022-09-30T19:56:43.060009,567228,-1782,-391,-104,-1004,-590,-338,124,426,-230
942,0,2022-09-30T19:56:43.066321,567234,-1782,-391,-104,-1004,-590,-338,124,426,-230
943,0,2022-09-30T19:56:43.071696,567239,-1775,-384,-109,-992,-578,-311,124,426,-230
944,0,2022-09-30T19:56:43.078118,567245,-1775,-384,-109,-992,-578,-311,124,426,-230
945,0,2022-09-30T19:56:43.084376,567251,-1775,-384,-109,-992,-578,-311,124,426,-230
946,0,2022-09-30T19:56:43.089612,567258,-1780,-389,-109,-1025,-617,-233,124,426,-230
947,0,2022-09-30T19:56:43.095994,567264,-1780,-389,-109,-1025,-617,-233,124,426,-230
948,0,2022-09-30T19:56:43.101108,567269,-1780,-389,-109,-1025,-617,-233,124,426,-230
949,0,2022-09-30T19:56:43.107974,567275,-1778,-405,-99,-1096,-620,-312,122,418,-226
950,0,2022-09-30T19:56:43.114599,567282,-1778,-405,-99,-1096,-620,-312,122,418,-226
951,0,2022-09-30T19:56:43.119752,567287,-1778,-405,-99,-1096,-620,-312,122,418,-226
952,0,2022-09-30T19:56:43.126132,567293,-1778,-405,-99,-1096,-620,-312,122,418,-226
953,0,2022-09-30T19:56:43.131323,567299,-1769,-409,-97,-1148,-590,-385,122,418,-226
954,0,2022-09-30T19:56:43.137352,567305,-1769,-409,-97,-1148,-590,-385,122,418,-226
955,0,2022-09-30T19:56:43.143693,567311,-1769,-409,-97,-1148,-590,-385,122,418,-226
956,0,2022-09-30T19:56:43.150277,567317,-1779,-403,-89,-1077,-476,-317,122,418,-226
957,0,2022-09-30T19:56:43.156685,567324,-1779,-403,-89,-1077,-476,-317,122,418,-226
958,0,2022-09-30T19:56:43.163557,567331,-1779,-403,-89,-1077,-476,-317,122,418,-226
959,0,2022-09-30T19:56:43.168879,567336,-1778,-390,-97,-1074,-580,-366,122,418,-226
960,0,2022-09-30T19:56:43.176496,567344,-1778,-390,-97,-1074,-580,-366,122,418,-226
961,0,2022-09-30T19:56:43.182115,567350,-1778,-390,-97,-1074,-580,-366,122,418,-226
962,0,2022-09-30T19:56:43.188676,567356,-1775,-394,-117,-1120,-673,-246,122,418,-226
963,0,2022-09-30T19:56:43.195584,567363,-1775,-394,-117,-1120,-673,-246,122,418,-226
964,0,2022-09-30T19:56:43.201693,567368,-1775,-394,-117,-1120,-673,-246,122,418,-226
965,0,2022-09-30T19:56:43.207865,567374,-1775,-394,-117,-1120,-673,-246,122,418,-226
966,0,2022-09-30T19:56:43.214136,567380,-1783,-399,-109,-1032,-560,-197,122,418,-226
967,0,2022-09-30T19:56:43.222242,567389,-1783,-399,-109,-1032,-560,-197,122,418,-226
968,0,2022-09-30T19:56:43.229712,567396,-1778,-396,-97,-886,-486,-370,122,418,-226
969,0,2022-09-30T19:56:43.237719,567404,-1778,-396,-97,-886,-486,-370,122,418,-226
970,0,2022-09-30T19:56:43.244961,567411,-1778,-396,-97,-886,-486,-370,122,418,-226
971,0,2022-09-30T19:56:43.252400,567419,-1776,-400,-83,-997,-525,-286,120,422,-230
972,0,2022-09-30T19:56:43.261617,567429,-1776,-400,-83,-997,-525,-286,120,422,-230
973,0,2022-09-30T19:56:43.269079,567436,-1784,-401,-109,-1107,-609,-219,120,422,-230
974,0,2022-09-30T19:56:43.277260,567444,-1784,-401,-109,-1107,-609,-219,120,422,-230
975,0,2022-09-30T19:56:43.283437,567450,-1784,-401,-109,-1107,-609,-219,120,422,-230
976,0,2022-09-30T19:56:43.291195,567458,-1782,-402,-115,-999,-552,-347,120,422,-230
977,0,2022-09-30T19:56:43.298500,567465,-1782,-402,-115,-999,-552,-347,120,422,-230
978,0,2022-09-30T19:56:43.307096,567473,-1782,-402,-115,-999,-552,-347,120,422,-230
979,0,2022-09-30T19:56:43.312829,567480,-1771,-400,-96,-890,-446,-438,120,422,-230
980,0,2022-09-30T19:56:43.320241,567487,-1771,-400,-96,-890,-446,-438,120,422,-230
981,0,2022-09-30T19:56:43.326532,567493,-1771,-400,-96,-890,-446,-438,120,422,-230
982,0,2022-09-30T19:56:43.332740,567499,-1774,-401,-83,-991,-497,-357,120,422,-230
983,0,2022-09-30T19:56:43.339918,567507,-1774,-401,-83,-991,-497,-357,120,422,-230
984,0,2022-09-30T19:56:43.347447,567514,-1774,-401,-83,-991,-497,-357,120,422,-230
985,0,2022-09-30T19:56:43.353296,567521,-1774,-401,-83,-991,-497,-357,120,422,-230
986,0,2022-09-30T19:56:43.358555,567526,-1774,-401,-83,-991,-497,-357,120,422,-230
987,0,2022-09-30T19:56:43.364051,567531,-1774,-401,-83,-991,-497,-357,120,422,-230
988,0,2022-09-30T19:56:43.369591,567537,-1783,-400,-104,-1047,-637,-325,123,425,-225
989,0,2022-09-30T19:56:43.375997,567543,-1783,-400,-104,-1047,-637,-325,123,425,-225
990,0,2022-09-30T19:56:43.381220,567548,-1783,-400,-104,-1047,-637,-325,123,425,-225
991,0,2022-09-30T19:56:43.387512,567555,-1783,-400,-104,-1047,-637,-325,123,425,-225
992,0,2022-09-30T19:56:43.392445,567560,-1777,-396,-96,-959,-546,-379,123,425,-225
993,0,2022-09-30T19:56:43.399416,567567,-1777,-396,-96,-959,-546,-379,123,425,-225
994,0,2022-09-30T19:56:43.404543,567572,-1777,-396,-96,-959,-546,-379,123,425,-225
995,0,2022-09-30T19:56:43.409546,567577,-1778,-398,-96,-979,-522,-283,123,425,-225
996,0,2022-09-30T19:56:43.415693,567583,-1778,-398,-96,-979,-522,-283,123,425,-225
997,0,2022-09-30T19:56:43.420449,567588,-1778,-398,-96,-979,-522,-283,123,425,-225
998,0,2022-09-30T19:56:43.426606,567595,-1778,-398,-96,-979,-522,-283,123,425,-225
999,0,2022-09-30T19:56:43.432430,567600,-1780,-396,-102,-972,-573,-269,123,425,-225
1000,0,2022-09-30T19:56:43.438574,567606,-1780,-396,-102,-972,-573,-269,123,425,-225
1001,0,2022-09-30T19:56:43.445394,567613,-1780,-396,-102,-972,-573,-269,123,425,-225
1002,0,2022-09-30T19:56:43.450411,567618,-1778,-391,-109,-944,-591,-244,123,425,-225
1003,0,2022-09-30T19:56:43.456803,567624,-1778,-391,-109,-944,-591,-244,123,425,-225
1004,0,2022-09-30T19:56:43.463214,567630,-1778,-391,-109,-944,-591,-244,123,425,-225
1005,0,2022-09-30T19:56:43.469582,567638,-1779,-392,-103,-952,-514,-220,123,425,-225
1006,0,2022-09-30T19:56:43.475845,567644,-1779,-392,-103,-952,-514,-220,123,425,-225
1007,0,2022-09-30T19:56:43.481611,567649,-1779,-392,-103,-952,-514,-220,123,425,-225
1008,0,2022-09-30T19:56:43.487907,567655,-1780,-398,-101,-978,-510,-251,123,425,-225
1009,0,2022-09-30T19:56:43.494514,567662,-1780,-398,-101,-978,-510,-251,119,425,-227
1010,0,2022-09-30T19:56:43.500418,567667,-1780,-398,-101,-978,-510,-251,119,425,-227
1011,0,2022-09-30T19:56:43.507093,567674,-1780,-398,-101,-978,-510,-251,119,425,-227
1012,0,2022-09-30T19:56:43.512592,567680,-1781,-401,-90,-991,-500,-367,119,425,-227
1013,0,2022-09-30T19:56:43.519489,567687,-1781,-401,-90,-991,-500,-367,119,425,-227
1014,0,2022-09-30T19:56:43.526175,567694,-1781,-401,-90,-991,-500,-367,119,425,-227
1015,0,2022-09-30T19:56:43.532207,567700,-1773,-394,-95,-1067,-569,-352,119,425,-227
1016,0,2022-09-30T19:56:43.540467,567707,-1773,-394,-95,-1067,-569,-352,119,425,-227
1017,0,2022-09-30T19:56:43.548140,567715,-1773,-394,-95,-1067,-569,-352,119,425,-227
1018,0,2022-09-30T19:56:43.554066,567721,-1781,-391,-110,-1140,-688,-216,119,425,-227
1019,0,2022-09-30T19:56:43.565771,567733,-1781,-391,-110,-1140,-688,-216,119,425,-227
1020,0,2022-09-30T19:56:43.573370,567740,-1780,-394,-113,-1038,-745,-248,119,425,-227
1021,0,2022-09-30T19:56:43.579784,567747,-1780,-394,-113,-1038,-745,-248,119,425,-227
1022,0,2022-09-30T19:56:43.587486,567753,-1780,-394,-113,-1038,-745,-248,119,425,-227
1023,0,2022-09-30T19:56:43.593153,567760,-1782,-401,-101,-991,-529,-209,119,425,-227
1024,0,2022-09-30T19:56:43.600465,567768,-1782,-401,-101,-991,-529,-209,119,425,-227
1025,0,2022-09-30T19:56:43.606425,567773,-1782,-401,-101,-991,-529,-209,119,425,-227
1026,0,2022-09-30T19:56:43.612213,567780,-1776,-399,-95,-957,-416,-305,119,425,-227
1027,0,2022-09-30T19:56:43.619189,567786,-1776,-399,-95,-957,-416,-305,119,425,-227
1028,0,2022-09-30T19:56:43.629544,567796,-1782,-392,-95,-978,-511,-344,124,424,-230
1029,0,2022-09-30T19:56:43.641405,567808,-1782,-392,-95,-978,-511,-344,124,424,-230
1030,0,2022-09-30T19:56:43.647859,567815,-1782,-392,-95,-978,-511,-344,124,424,-230
1031,0,2022-09-30T19:56:43.654008,567821,-1785,-398,-107,-1017,-566,-311,124,424,-230
1032,0,2022-09-30T19:56:43.664662,567831,-1785,-398,-107,-1017,-566,-311,124,424,-230
1033,0,2022-09-30T19:56:43.674299,567841,-1774,-399,-90,-955,-509,-343,124,424,-230
1034,0,2022-09-30T19:56:43.682434,567848,-1774,-399,-90,-955,-509,-343,124,424,-230
1035,0,2022-09-30T19:56:43.694025,567861,-1771,-398,-92,-1031,-547,-321,124,424,-230
1036,0,2022-09-30T19:56:43.703978,567870,-1771,-398,-92,-1031,-547,-321,124,424,-230
1037,0,2022-09-30T19:56:43.716140,567883,-1771,-398,-92,-1031,-547,-321,124,424,-230
1038,0,2022-09-30T19:56:43.722644,567889,-1771,-398,-92,-1031,-547,-321,124,424,-230
1039,0,2022-09-30T19:56:43.732759,567899,-1786,-400,-112,-922,-552,-381,124,424,-230
1040,0,2022-09-30T19:56:43.744580,567911,-1786,-400,-112,-922,-552,-381,124,424,-230
1041,0,2022-09-30T19:56:43.752607,567919,-1775,-388,-99,-835,-396,-470,118,424,-224
1042,0,2022-09-30T19:56:43.762212,567929,-1775,-388,-99,-835,-396,-470,118,424,-224
1043,0,2022-09-30T19:56:43.772090,567939,-1773,-391,-82,-859,-450,-310,118,424,-224
1044,0,2022-09-30T19:56:43.778957,567947,-1773,-391,-82,-859,-450,-310,118,424,-224
1045,0,2022-09-30T19:56:43.786545,567953,-1773,-391,-82,-859,-450,-310,118,424,-224
1046,0,2022-09-30T19:56:43.792516,567960,-1773,-393,-91,-1059,-577,-185,118,424,-224
1047,0,2022-09-30T19:56:43.798967,567966,-1773,-393,-91,-1059,-577,-185,118,424,-224
1048,0,2022-09-30T19:56:43.806208,567973,-1773,-393,-91,-1059,-577,-185,118,424,-224
1049,0,2022-09-30T19:56:43.812168,567980,-1779,-395,-104,-1132,-692,-237,118,424,-224
1050,0,2022-09-30T19:56:43.818773,567987,-1779,-395,-104,-1132,-692,-237,118,424,-224
1051,0,2022-09-30T19:56:43.825740,567994,-1779,-395,-104,-1132,-692,-237,118,424,-224
1052,0,2022-09-30T19:56:43.831321,567999,-1780,-394,-106,-1051,-581,-298,118,424,-224
1053,0,2022-09-30T19:56:43.838822,568006,-1780,-394,-106,-1051,-581,-298,118,424,-224
1054,0,2022-09-30T19:56:43.847068,568014,-1780,-394,-106,-1051,-581,-298,118,424,-224
1055,0,2022-09-30T19:56:43.853162,568020,-1780,-394,-92,-981,-499,-350,118,424,-224
1056,0,2022-09-30T19:56:43.859779,568028,-1780,-394,-92,-981,-499,-350,118,424,-224
1057,0,2022-09-30T19:56:43.866495,568034,-1780,-394,-92,-981,-499,-350,118,424,-224
1058,0,2022-09-30T19:56:43.872006,568040,-1778,-392,-92,-1074,-518,-309,118,424,-224
1059,0,2022-09-30T19:56:43.877212,568045,-1778,-392,-92,-1074,-518,-309,118,424,-224
1060,0,2022-09-30T19:56:43.883259,568051,-1778,-392,-92,-1074,-518,-309,118,424,-224
1061,0,2022-09-30T19:56:43.889699,568057,-1777,-395,-96,-1149,-620,-222,126,428,-230
1062,0,2022-09-30T19:56:43.898609,568067,-1777,-395,-96,-1149,-620,-222,126,428,-230
1063,0,2022-09-30T19:56:43.904021,568072,-1777,-395,-96,-1149,-620,-222,126,428,-230
1064,0,2022-09-30T19:56:43.910741,568077,-1777,-395,-109,-1062,-681,-298,126,428,-230
1065,0,2022-09-30T19:56:43.918017,568085,-1777,-395,-109,-1062,-681,-298,126,428,-230
1066,0,2022-09-30T19:56:43.923262,568091,-1777,-395,-109,-1062,-681,-298,126,428,-230
1067,0,2022-09-30T19:56:43.929586,568097,-1782,-391,-103,-987,-581,-294,126,428,-230
1068,0,2022-09-30T19:56:43.937673,568104,-1782,-391,-103,-987,-581,-294,126,428,-230
1069,0,2022-09-30T19:56:43.943040,568111,-1782,-391,-103,-987,-581,-294,126,428,-230
1070,0,2022-09-30T19:56:43.951300,568119,-1782,-399,-90,-1047,-494,-245,126,428,-230
1071,0,2022-09-30T19:56:43.960369,568126,-1782,-399,-90,-1047,-494,-245,126,428,-230
1072,0,2022-09-30T19:56:43.969839,568137,-1780,-400,-91,-1065,-526,-313,126,428,-230
1073,0,2022-09-30T19:56:43.976830,568144,-1780,-400,-91,-1065,-526,-313,126,428,-230
1074,0,2022-09-30T19:56:43.983501,568150,-1780,-400,-91,-1065,-526,-313,126,428,-230
1075,0,2022-09-30T19:56:43.994177,568162,-1780,-395,-98,-1083,-567,-294,126,428,-230
1076,0,2022-09-30T19:56:44.000746,568168,-1780,-395,-98,-1083,-567,-294,126,428,-230
1077,0,2022-09-30T19:56:44.011710,568175,-1780,-395,-98,-1083,-567,-294,126,428,-230
1078,0,2022-09-30T19:56:44.017096,568184,-1778,-390,-101,-1074,-606,-330,132,426,-224
1079,0,2022-09-30T19:56:44.023353,568192,-1778,-390,-101,-1074,-606,-330,132,426,-224
1080,0,2022-09-30T19:56:44.033871,568200,-1780,-393,-97,-1040,-589,-312,132,426,-224
1081,0,2022-09-30T19:56:44.039276,568207,-1780,-393,-97,-1040,-589,-312,132,426,-224
1082,0,2022-09-30T19:56:44.048775,568216,-1780,-393,-97,-1040,-589,-312,132,426,-224
1083,0,2022-09-30T19:56:44.055122,568221,-1775,-394,-99,-1099,-589,-251,132,426,-224
1084,0,2022-09-30T19:56:44.067189,568235,-1775,-394,-99,-1099,-589,-251,132,426,-224
1085,0,2022-09-30T19:56:44.075375,568242,-1776,-395,-95,-1099,-659,-290,132,426,-224
1086,0,2022-09-30T19:56:44.085745,568250,-1776,-395,-95,-1099,-659,-290,132,426,-224
1087,0,2022-09-30T19:56:44.096173,568262,-1788,-394,-105,-1130,-606,-298,132,426,-224
1088,0,2022-09-30T19:56:44.104158,568270,-1788,-394,-105,-1130,-606,-298,132,426,-224
1089,0,2022-09-30T19:56:44.119555,568286,-1782,-402,-103,-1068,-516,-424,132,426,-224
1090,0,2022-09-30T19:56:44.127739,568294,-1782,-402,-103,-1068,-516,-424,132,426,-224
1091,0,2022-09-30T19:56:44.135624,568302,-1775,-396,-93,-1018,-457,-481,119,419,-225
1092,0,2022-09-30T19:56:44.143286,568310,-1775,-396,-93,-1018,-457,-481,119,419,-225
1093,0,2022-09-30T19:56:44.154006,568321,-1772,-387,-88,-1086,-571,-310,119,419,-225
1094,0,2022-09-30T19:56:44.163655,568327,-1772,-387,-88,-1086,-571,-310,119,419,-225
1095,0,2022-09-30T19:56:44.173401,568339,-1780,-388,-99,-1165,-726,-172,119,419,-225
1096,0,2022-09-30T19:56:44.181761,568348,-1780,-388,-99,-1165,-726,-172,119,419,-225
1097,0,2022-09-30T19:56:44.194616,568361,-1788,-394,-103,-1163,-741,-213,119,419,-225
1098,0,2022-09-30T19:56:44.202075,568370,-1788,-394,-103,-1163,-741,-213,119,419,-225
1099,0,2022-09-30T19:56:44.209431,568376,-1788,-394,-103,-1163,-741,-213,119,419,-225
1100,0,2022-09-30T19:56:44.216399,568383,-1782,-393,-109,-1068,-532,-354,119,419,-225
1101,0,2022-09-30T19:56:44.223336,568391,-1782,-393,-109,-1068,-532,-354,119,419,-225
1102,0,2022-09-30T19:56:44.230324,568397,-1772,-389,-98,-1003,-423,-411,119,419,-225
1103,0,2022-09-30T19:56:44.242198,568409,-1772,-389,-98,-1003,-423,-411,119,419,-225
1104,0,2022-09-30T19:56:44.248665,568416,-1778,-395,-97,-1165,-567,-276,119,419,-225
1105,0,2022-09-30T19:56:44.255657,568423,-1778,-395,-97,-1165,-567,-276,119,419,-225
1106,0,2022-09-30T19:56:44.263309,568429,-1778,-395,-97,-1165,-567,-276,119,419,-225
1107,0,2022-09-30T19:56:44.273658,568441,-1777,-397,-92,-1195,-674,-233,118,422,-232
1108,0,2022-09-30T19:56:44.280068,568448,-1777,-397,-92,-1195,-674,-233,118,422,-232
1109,0,2022-09-30T19:56:44.289783,568456,-1778,-395,-99,-1192,-603,-237,118,422,-232
1110,0,2022-09-30T19:56:44.299774,568465,-1778,-395,-99,-1192,-603,-237,118,422,-232
1111,0,2022-09-30T19:56:44.305819,568473,-1778,-395,-99,-1192,-603,-237,118,422,-232
1112,0,2022-09-30T19:56:44.314226,568482,-1777,-397,-100,-1211,-580,-238,118,422,-232
1113,0,2022-09-30T19:56:44.320390,568488,-1777,-397,-100,-1211,-580,-238,118,422,-232
1114,0,2022-09-30T19:56:44.326585,568495,-1777,-397,-100,-1211,-580,-238,118,422,-232
1115,0,2022-09-30T19:56:44.332189,568500,-1780,-400,-104,-1181,-604,-277,118,422,-232
1116,0,2022-09-30T19:56:44.338409,568506,-1780,-400,-104,-1181,-604,-277,118,422,-232
1117,0,2022-09-30T19:56:44.345423,568513,-1780,-400,-104,-1181,-604,-277,118,422,-232
1118,0,2022-09-30T19:56:44.350503,568518,-1781,-389,-100,-1046,-576,-312,118,422,-232
1119,0,2022-09-30T19:56:44.357202,568524,-1781,-389,-100,-1046,-576,-312,118,422,-232
1120,0,2022-09-30T19:56:44.362265,568530,-1781,-389,-100,-1046,-576,-312,118,422,-232
1121,0,2022-09-30T19:56:44.369145,568537,-1784,-393,-92,-1074,-553,-333,118,422,-232
1122,0,2022-09-30T19:56:44.375249,568543,-1784,-393,-92,-1074,-553,-333,118,422,-232
1123,0,2022-09-30T19:56:44.380268,568548,-1784,-393,-92,-1074,-553,-333,118,422,-232
1124,0,2022-09-30T19:56:44.386918,568555,-1784,-393,-92,-1074,-553,-333,118,422,-232
1125,0,2022-09-30T19:56:44.391794,568559,-1778,-400,-104,-1195,-630,-320,130,418,-228
1126,0,2022-09-30T19:56:44.397970,568565,-1778,-400,-104,-1195,-630,-320,130,418,-228
1127,0,2022-09-30T19:56:44.403912,568571,-1778,-400,-104,-1195,-630,-320,130,418,-228
1128,0,2022-09-30T19:56:44.410314,568578,-1781,-398,-114,-1116,-650,-324,130,418,-228
1129,0,2022-09-30T19:56:44.416706,568585,-1781,-398,-114,-1116,-650,-324,130,418,-228
1130,0,2022-09-30T19:56:44.422737,568590,-1781,-398,-114,-1116,-650,-324,130,418,-228
1131,0,2022-09-30T19:56:44.430181,568598,-1780,-397,-99,-982,-515,-422,130,418,-228
1132,0,2022-09-30T19:56:44.437406,568604,-1780,-397,-99,-982,-515,-422,130,418,-228
1133,0,2022-09-30T19:56:44.442870,568610,-1780,-397,-99,-982,-515,-422,130,418,-228
1134,0,2022-09-30T19:56:44.449307,568616,-1776,-396,-83,-1046,-449,-391,130,418,-228
1135,0,2022-09-30T19:56:44.455386,568623,-1776,-396,-83,-1046,-449,-391,130,418,-228
1136,0,2022-09-30T19:56:44.460884,568629,-1776,-396,-83,-1046,-449,-391,130,418,-228
1137,0,2022-09-30T19:56:44.469016,568636,-1780,-396,-95,-1165,-570,-239,130,418,-228
1138,0,2022-09-30T19:56:44.475944,568643,-1780,-396,-95,-1165,-570,-239,130,418,-228
1139,0,2022-09-30T19:56:44.481736,568649,-1780,-396,-95,-1165,-570,-239,130,418,-228
1140,0,2022-09-30T19:56:44.489054,568656,-1785,-388,-113,-1203,-761,-198,130,418,-228
1141,0,2022-09-30T19:56:44.496136,568664,-1785,-388,-113,-1203,-761,-198,130,418,-228
1142,0,2022-09-30T19:56:44.501515,568669,-1785,-388,-113,-1203,-761,-198,130,418,-228
1143,0,2022-09-30T19:56:44.508156,568676,-1785,-388,-113,-1203,-761,-198,130,418,-228
1144,0,2022-09-30T19:56:44.513402,568681,-1781,-390,-117,-1083,-720,-242,130,418,-228
1145,0,2022-09-30T19:56:44.520283,568687,-1781,-390,-117,-1083,-720,-242,130,418,-228
1146,0,2022-09-30T19:56:44.527846,568695,-1781,-390,-117,-1083,-720,-242,130,418,-228
1147,0,2022-09-30T19:56:44.533803,568700,-1776,-397,-105,-1072,-546,-391,122,418,-220
1148,0,2022-09-30T19:56:44.541631,568709,-1776,-397,-105,-1072,-546,-391,122,418,-220
1149,0,2022-09-30T19:56:44.549357,568716,-1776,-397,-105,-1072,-546,-391,122,418,-220
1150,0,2022-09-30T19:56:44.555776,568723,-1779,-398,-93,-1084,-450,-371,122,418,-220
1151,0,2022-09-30T19:56:44.563722,568730,-1779,-398,-93,-1084,-450,-371,122,418,-220
1152,0,2022-09-30T19:56:44.571907,568738,-1777,-403,-84,-1104,-429,-328,122,418,-220
1153,0,2022-09-30T19:56:44.579672,568747,-1777,-403,-84,-1104,-429,-328,122,418,-220
1154,0,2022-09-30T19:56:44.587856,568755,-1777,-403,-84,-1104,-429,-328,122,418,-220
1155,0,2022-09-30T19:56:44.594126,568761,-1775,-397,-101,-1184,-661,-271,122,418,-220
1156,0,2022-09-30T19:56:44.601717,568769,-1775,-397,-101,-1184,-661,-271,122,418,-220
1157,0,2022-09-30T19:56:44.610915,568778,-1785,-388,-115,-1168,-798,-197,122,418,-220
1158,0,2022-09-30T19:56:44.618897,568785,-1785,-388,-115,-1168,-798,-197,122,418,-220
1159,0,2022-09-30T19:56:44.624918,568792,-1785,-388,-115,-1168,-798,-197,122,418,-220
1160,0,2022-09-30T19:56:44.635845,568801,-1780,-390,-110,-1063,-696,-284,122,418,-220
1161,0,2022-09-30T19:56:44.644165,568811,-1780,-390,-110,-1063,-696,-284,122,418,-220
1162,0,2022-09-30T19:56:44.653203,568820,-1778,-394,-90,-1053,-499,-300,117,425,-221
1163,0,2022-09-30T19:56:44.660697,568827,-1778,-394,-90,-1053,-499,-300,117,425,-221
1164,0,2022-09-30T19:56:44.669127,568837,-1778,-394,-90,-1053,-499,-300,117,425,-221
1165,0,2022-09-30T19:56:44.674978,568842,-1777,-398,-96,-1167,-552,-246,117,425,-221
1166,0,2022-09-30T19:56:44.682448,568849,-1777,-398,-96,-1167,-552,-246,117,425,-221
1167,0,2022-09-30T19:56:44.691252,568858,-1786,-400,-106,-1135,-610,-203,117,425,-221
1168,0,2022-09-30T19:56:44.698381,568865,-1786,-400,-106,-1135,-610,-203,117,425,-221
1169,0,2022-09-30T19:56:44.704218,568872,-1786,-400,-106,-1135,-610,-203,117,425,-221
1170,0,2022-09-30T19:56:44.712189,568880,-1787,-399,-107,-1057,-529,-370,117,425,-221
1171,0,2022-09-30T19:56:44.718881,568887,-1787,-399,-107,-1057,-529,-370,117,425,-221
1172,0,2022-09-30T19:56:44.726437,568894,-1787,-399,-107,-1057,-529,-370,117,425,-221
1173,0,2022-09-30T19:56:44.731724,568899,-1781,-396,-91,-984,-478,-465,117,425,-221
1174,0,2022-09-30T19:56:44.738088,568906,-1781,-396,-91,-984,-478,-465,117,425,-221
1175,0,2022-09-30T19:56:44.743945,568911,-1781,-396,-91,-984,-478,-465,117,425,-221
1176,0,2022-09-30T19:56:44.750194,568918,-1774,-394,-92,-1117,-609,-317,117,425,-221
1177,0,2022-09-30T19:56:44.756405,568924,-1774,-394,-92,-1117,-609,-317,117,425,-221
1178,0,2022-09-30T19:56:44.761712,568929,-1774,-394,-92,-1117,-609,-317,117,425,-221
1179,0,2022-09-30T19:56:44.769290,568937,-1774,-394,-92,-1117,-609,-317,117,425,-221
1180,0,2022-09-30T19:56:44.774806,568942,-1774,-394,-92,-1117,-609,-317,117,425,-221
1181,0,2022-09-30T19:56:44.780300,568948,-1774,-394,-92,-1117,-609,-317,117,425,-221
1182,0,2022-09-30T19:56:44.787866,568955,-1774,-394,-92,-1117,-609,-317,117,425,-221
1183,0,2022-09-30T19:56:44.794152,568962,-1779,-396,-101,-1072,-652,-271,125,415,-223
1184,0,2022-09-30T19:56:44.800899,568968,-1779,-396,-101,-1072,-652,-271,125,415,-223
1185,0,2022-09-30T19:56:44.808326,568976,-1779,-396,-101,-1072,-652,-271,125,415,-223
1186,0,2022-09-30T19:56:44.813943,568981,-1781,-396,-98,-1046,-475,-287,125,415,-223
1187,0,2022-09-30T19:56:44.821666,568989,-1781,-396,-98,-1046,-475,-287,125,415,-223
1188,0,2022-09-30T19:56:44.829903,568996,-1777,-394,-105,-1044,-532,-341,125,415,-223
1189,0,2022-09-30T19:56:44.836974,569005,-1777,-394,-105,-1044,-532,-341,125,415,-223
1190,0,2022-09-30T19:56:44.842401,569010,-1777,-394,-105,-1044,-532,-341,125,415,-223
1191,0,2022-09-30T19:56:44.850656,569018,-1777,-393,-105,-1061,-617,-274,125,415,-223
1192,0,2022-09-30T19:56:44.857506,569025,-1777,-393,-105,-1061,-617,-274,125,415,-223
1193,0,2022-09-30T19:56:44.863239,569030,-1777,-393,-105,-1061,-617,-274,125,415,-223
1194,0,2022-09-30T19:56:44.870492,569037,-1777,-396,-96,-1125,-623,-201,125,415,-223
1195,0,2022-09-30T19:56:44.877049,569044,-1777,-396,-96,-1125,-623,-201,125,415,-223
1196,0,2022-09-30T19:56:44.882925,569050,-1777,-396,-96,-1125,-623,-201,125,415,-223
1197,0,2022-09-30T19:56:44.891125,569058,-1778,-392,-100,-1154,-606,-262,125,415,-223
1198,0,2022-09-30T19:56:44.898007,569065,-1778,-392,-100,-1154,-606,-262,125,415,-223
1199,0,2022-09-30T19:56:44.903752,569071,-1778,-392,-100,-1154,-606,-262,125,415,-223
1200,0,2022-09-30T19:56:44.911447,569077,-1791,-390,-112,-1183,-589,-264,117,423,-225
1201,0,2022-09-30T19:56:44.918605,569085,-1791,-390,-112,-1183,-589,-264,117,423,-225
1202,0,2022-09-30T19:56:44.923827,569092,-1791,-390,-112,-1183,-589,-264,117,423,-225
1203,0,2022-09-30T19:56:44.932499,569100,-1777,-397,-119,-1022,-579,-407,117,423,-225
1204,0,2022-09-30T19:56:44.939781,569106,-1777,-397,-119,-1022,-579,-407,117,423,-225
1205,0,2022-09-30T19:56:44.947526,569114,-1777,-397,-119,-1022,-579,-407,117,423,-225
1206,0,2022-09-30T19:56:44.953967,569121,-1769,-396,-97,-859,-413,-480,117,423,-225
1207,0,2022-09-30T19:56:44.961041,569128,-1769,-396,-97,-859,-413,-480,117,423,-225
1208,0,2022-09-30T19:56:44.968557,569136,-1769,-396,-97,-859,-413,-480,117,423,-225
1209,0,2022-09-30T19:56:44.974199,569141,-1775,-395,-81,-985,-374,-317,117,423,-225
1210,0,2022-09-30T19:56:44.980856,569148,-1775,-395,-81,-985,-374,-317,117,423,-225
1211,0,2022-09-30T19:56:44.988375,569155,-1775,-395,-81,-985,-374,-317,117,423,-225
1212,0,2022-09-30T19:56:44.993648,569161,-1785,-396,-103,-1136,-662,-240,117,423,-225
1213,0,2022-09-30T19:56:45.000101,569167,-1785,-396,-103,-1136,-662,-240,117,423,-225
1214,0,2022-09-30T19:56:45.006074,569174,-1785,-396,-103,-1136,-662,-240,117,423,-225
1215,0,2022-09-30T19:56:45.011835,569179,-1777,-392,-116,-1126,-774,-258,117,423,-225
1216,0,2022-09-30T19:56:45.018530,569186,-1777,-392,-116,-1126,-774,-258,117,423,-225
1217,0,2022-09-30T19:56:45.024302,569192,-1777,-392,-116,-1126,-774,-258,117,423,-225
1218,0,2022-09-30T19:56:45.033144,569199,-1778,-392,-115,-965,-703,-325,125,421,-223
1219,0,2022-09-30T19:56:45.040179,569207,-1778,-392,-115,-965,-703,-325,125,421,-223
1220,0,2022-09-30T19:56:45.048750,569216,-1778,-392,-115,-965,-703,-325,125,421,-223
1221,0,2022-09-30T19:56:45.054736,569222,-1777,-393,-99,-917,-464,-376,125,421,-223
1222,0,2022-09-30T19:56:45.061993,569229,-1777,-393,-99,-917,-464,-376,125,421,-223
1223,0,2022-09-30T19:56:45.070401,569237,-1775,-401,-94,-1016,-407,-358,125,421,-223
1224,0,2022-09-30T19:56:45.077328,569244,-1775,-401,-94,-1016,-407,-358,125,421,-223
1225,0,2022-09-30T19:56:45.084382,569250,-1775,-401,-94,-1016,-407,-358,125,421,-223
1226,0,2022-09-30T19:56:45.091984,569259,-1777,-403,-90,-1050,-415,-355,125,421,-223
1227,0,2022-09-30T19:56:45.099997,569268,-1777,-403,-90,-1050,-415,-355,125,421,-223
1228,0,2022-09-30T19:56:45.108551,569275,-1777,-403,-90,-1050,-415,-355,125,421,-223
1229,0,2022-09-30T19:56:45.114276,569281,-1787,-401,-97,-1060,-539,-316,125,421,-223
1230,0,2022-09-30T19:56:45.122016,569288,-1787,-401,-97,-1060,-539,-316,125,421,-223
1231,0,2022-09-30T19:56:45.131234,569297,-1781,-397,-105,-1091,-670,-403,125,421,-223
1232,0,2022-09-30T19:56:45.138996,569306,-1781,-397,-105,-1091,-670,-403,125,421,-223
1233,0,2022-09-30T19:56:45.145114,569312,-1781,-397,-105,-1091,-670,-403,125,421,-223
1234,0,2022-09-30T19:56:45.154464,569321,-1772,-399,-107,-1024,-703,-397,125,421,-223
1235,0,2022-09-30T19:56:45.162866,569330,-1772,-399,-107,-1024,-703,-397,125,421,-223
1236,0,2022-09-30T19:56:45.169274,569336,-1772,-399,-107,-1024,-703,-397,125,421,-223
1237,0,2022-09-30T19:56:45.175485,569342,-1777,-397,-109,-1004,-637,-302,128,430,-228
1238,0,2022-09-30T19:56:45.183293,569351,-1777,-397,-109,-1004,-637,-302,128,430,-228
1239,0,2022-09-30T19:56:45.189942,569357,-1777,-397,-109,-1004,-637,-302,128,430,-228
1240,0,2022-09-30T19:56:45.196245,569363,-1780,-398,-109,-907,-561,-306,128,430,-228
1241,0,2022-09-30T19:56:45.204599,569371,-1780,-398,-109,-907,-561,-306,128,430,-228
1242,0,2022-09-30T19:56:45.214344,569381,-1784,-399,-103,-874,-436,-288,128,430,-228
1243,0,2022-09-30T19:56:45.221984,569389,-1784,-399,-103,-874,-436,-288,128,430,-228
1244,0,2022-09-30T19:56:45.231136,569398,-1786,-395,-97,-888,-380,-274,128,430,-228
1245,0,2022-09-30T19:56:45.238703,569406,-1786,-395,-97,-888,-380,-274,128,430,-228
1246,0,2022-09-30T19:56:45.244702,569412,-1786,-395,-97,-888,-380,-274,128,430,-228
1247,0,2022-09-30T19:56:45.251680,569417,-1775,-396,-99,-969,-496,-373,128,430,-228
1248,0,2022-09-30T19:56:45.258770,569426,-1775,-396,-99,-969,-496,-373,128,430,-228
1249,0,2022-09-30T19:56:45.265061,569432,-1775,-396,-99,-969,-496,-373,128,430,-228
1250,0,2022-09-30T19:56:45.271684,569439,-1765,-401,-99,-1008,-681,-368,128,430,-228
1251,0,2022-09-30T19:56:45.279248,569447,-1765,-401,-99,-1008,-681,-368,128,430,-228
1252,0,2022-09-30T19:56:45.287117,569455,-1765,-401,-99,-1008,-681,-368,128,430,-228
1253,0,2022-09-30T19:56:45.294652,569460,-1785,-397,-107,-1050,-761,-278,119,421,-227
1254,0,2022-09-30T19:56:45.301454,569469,-1785,-397,-107,-1050,-761,-278,119,421,-227
1255,0,2022-09-30T19:56:45.308920,569477,-1785,-397,-107,-1050,-761,-278,119,421,-227
1256,0,2022-09-30T19:56:45.314032,569482,-1785,-397,-107,-1050,-761,-278,119,421,-227
1257,0,2022-09-30T19:56:45.319011,569487,-1785,-397,-107,-1050,-761,-278,119,421,-227
1258,0,2022-09-30T19:56:45.325789,569493,-1785,-397,-107,-1050,-761,-278,119,421,-227
1259,0,2022-09-30T19:56:45.331013,569499,-1777,-399,-100,-973,-467,-343,119,421,-227
1260,0,2022-09-30T19:56:45.338174,569506,-1777,-399,-100,-973,-467,-343,119,421,-227
1261,0,2022-09-30T19:56:45.343270,569511,-1777,-399,-100,-973,-467,-343,119,421,-227
1262,0,2022-09-30T19:56:45.350016,569518,-1777,-399,-100,-973,-467,-343,119,421,-227
1263,0,2022-09-30T19:56:45.355601,569523,-1786,-394,-97,-937,-390,-312,119,421,-227
1264,0,2022-09-30T19:56:45.362127,569530,-1786,-394,-97,-937,-390,-312,119,421,-227
1265,0,2022-09-30T19:56:45.368716,569536,-1786,-394,-97,-937,-390,-312,119,421,-227
1266,0,2022-09-30T19:56:45.374231,569541,-1781,-392,-98,-912,-547,-396,119,421,-227
1267,0,2022-09-30T19:56:45.380912,569548,-1781,-392,-98,-912,-547,-396,119,421,-227
1268,0,2022-09-30T19:56:45.387701,569555,-1781,-392,-98,-912,-547,-396,119,421,-227
1269,0,2022-09-30T19:56:45.393359,569561,-1779,-399,-102,-934,-640,-366,119,421,-227
1270,0,2022-09-30T19:56:45.399918,569568,-1779,-399,-102,-934,-640,-366,119,421,-227
1271,0,2022-09-30T19:56:45.408061,569574,-1779,-399,-102,-934,-640,-366,119,421,-227
1272,0,2022-09-30T19:56:45.413869,569581,-1776,-403,-92,-1022,-536,-382,119,421,-227
1273,0,2022-09-30T19:56:45.421675,569589,-1776,-403,-92,-1022,-536,-382,119,421,-227
1274,0,2022-09-30T19:56:45.428630,569595,-1776,-403,-92,-1022,-536,-382,119,421,-227
1275,0,2022-09-30T19:56:45.434103,569602,-1778,-403,-93,-1063,-544,-371,115,413,-223
1276,0,2022-09-30T19:56:45.440854,569609,-1778,-403,-93,-1063,-544,-371,115,413,-223
1277,0,2022-09-30T19:56:45.449999,569618,-1778,-403,-93,-1063,-544,-371,115,413,-223
1278,0,2022-09-30T19:56:45.455674,569623,-1784,-401,-104,-989,-659,-405,115,413,-223
1279,0,2022-09-30T19:56:45.466036,569633,-1784,-401,-104,-989,-659,-405,115,413,-223
1280,0,2022-09-30T19:56:45.471489,569639,-1790,-397,-116,-846,-555,-393,115,413,-223
1281,0,2022-09-30T19:56:45.478851,569647,-1790,-397,-116,-846,-555,-393,115,413,-223
1282,0,2022-09-30T19:56:45.492970,569660,-1780,-394,-99,-802,-411,-418,115,413,-223
1283,0,2022-09-30T19:56:45.500241,569668,-1780,-394,-99,-802,-411,-418,115,413,-223
1284,0,2022-09-30T19:56:45.506106,569673,-1780,-394,-99,-802,-411,-418,115,413,-223
1285,0,2022-09-30T19:56:45.513959,569681,-1768,-402,-85,-909,-434,-354,115,413,-223
1286,0,2022-09-30T19:56:45.521966,569690,-1768,-402,-85,-909,-434,-354,115,413,-223
1287,0,2022-09-30T19:56:45.529741,569698,-1768,-402,-85,-909,-434,-354,115,413,-223
1288,0,2022-09-30T19:56:45.535580,569703,-1773,-403,-82,-1029,-563,-426,115,413,-223
1289,0,2022-09-30T19:56:45.543691,569711,-1773,-403,-82,-1029,-563,-426,115,413,-223
1290,0,2022-09-30T19:56:45.550787,569718,-1781,-396,-104,-1085,-786,-411,121,425,-229
1291,0,2022-09-30T19:56:45.556084,569723,-1781,-396,-104,-1085,-786,-411,121,425,-229
1292,0,2022-09-30T19:56:45.563496,569731,-1781,-396,-104,-1085,-786,-411,121,425,-229
1293,0,2022-09-30T19:56:45.573008,569741,-1784,-396,-119,-1005,-785,-344,121,425,-229
1294,0,2022-09-30T19:56:45.580148,569748,-1784,-396,-119,-1005,-785,-344,121,425,-229
1295,0,2022-09-30T19:56:45.587576,569753,-1784,-396,-119,-1005,-785,-344,121,425,-229
1296,0,2022-09-30T19:56:45.594016,569761,-1782,-402,-109,-934,-488,-341,121,425,-229
1297,0,2022-09-30T19:56:45.600364,569768,-1782,-402,-109,-934,-488,-341,121,425,-229
1298,0,2022-09-30T19:56:45.608969,569776,-1782,-402,-109,-934,-488,-341,121,425,-229
1299,0,2022-09-30T19:56:45.616948,569782,-1778,-399,-87,-878,-174,-364,121,425,-229
1300,0,2022-09-30T19:56:45.624045,569791,-1778,-399,-87,-878,-174,-364,121,425,-229
1301,0,2022-09-30T19:56:45.629497,569797,-1778,-399,-87,-878,-174,-364,121,425,-229
1302,0,2022-09-30T19:56:45.635602,569802,-1763,-393,-79,-959,-395,-377,121,425,-229
1303,0,2022-09-30T19:56:45.645330,569814,-1763,-393,-79,-959,-395,-377,121,425,-229
1304,0,2022-09-30T19:56:45.652601,569821,-1782,-401,-99,-1008,-891,-324,121,425,-229
1305,0,2022-09-30T19:56:45.659443,569827,-1782,-401,-99,-1008,-891,-324,121,425,-229
1306,0,2022-09-30T19:56:45.669289,569837,-1782,-401,-99,-1008,-891,-324,121,425,-229
1307,0,2022-09-30T19:56:45.674740,569842,-1787,-406,-112,-1087,-782,-264,121,425,-229
1308,0,2022-09-30T19:56:45.681061,569848,-1787,-406,-112,-1087,-782,-264,121,425,-229
1309,0,2022-09-30T19:56:45.690989,569858,-1787,-406,-112,-1087,-782,-264,121,425,-229
1310,0,2022-09-30T19:56:45.698058,569865,-1772,-401,-95,-1044,-477,-379,125,423,-227
1311,0,2022-09-30T19:56:45.705829,569873,-1772,-401,-95,-1044,-477,-379,125,423,-227
1312,0,2022-09-30T19:56:45.719358,569886,-1771,-399,-96,-1039,-516,-368,125,423,-227
1313,0,2022-09-30T19:56:45.727776,569894,-1771,-399,-96,-1039,-516,-368,125,423,-227
1314,0,2022-09-30T19:56:45.742119,569909,-1787,-401,-115,-988,-695,-354,125,423,-227
1315,0,2022-09-30T19:56:45.757433,569924,-1775,-399,-104,-809,-633,-410,125,423,-227
1316,0,2022-09-30T19:56:45.767034,569933,-1775,-399,-104,-809,-633,-410,125,423,-227
1317,0,2022-09-30T19:56:45.778555,569946,-1771,-406,-82,-1067,-282,-310,125,423,-227
1318,0,2022-09-30T19:56:45.792535,569959,-1769,-407,-75,-1234,-388,-315,125,423,-227
1319,0,2022-09-30T19:56:45.803367,569970,-1769,-407,-75,-1234,-388,-315,125,423,-227
1320,0,2022-09-30T19:56:45.814585,569980,-1769,-396,-94,-1116,-761,-266,116,424,-228
1321,0,2022-09-30T19:56:45.824180,569991,-1769,-396,-94,-1116,-761,-266,116,424,-228
1322,0,2022-09-30T19:56:45.834651,570000,-1788,-398,-104,-927,-731,-255,116,424,-228
1323,0,2022-09-30T19:56:45.843476,570010,-1788,-398,-104,-927,-731,-255,116,424,-228
1324,0,2022-09-30T19:56:45.849770,570016,-1788,-398,-104,-927,-731,-255,116,424,-228
1325,0,2022-09-30T19:56:45.855209,570023,-1778,-396,-109,-1033,-614,-376,116,424,-228
1326,0,2022-09-30T19:56:45.860370,570029,-1778,-396,-109,-1033,-614,-376,116,424,-228
1327,0,2022-09-30T19:56:45.867587,570036,-1778,-396,-109,-1033,-614,-376,116,424,-228
1328,0,2022-09-30T19:56:45.872608,570041,-1770,-407,-91,-1094,-476,-407,116,424,-228
1329,0,2022-09-30T19:56:45.877753,570046,-1770,-407,-91,-1094,-476,-407,116,424,-228
1330,0,2022-09-30T19:56:45.882690,570050,-1770,-407,-91,-1094,-476,-407,116,424,-228
1331,0,2022-09-30T19:56:45.889139,570057,-1770,-407,-91,-1094,-476,-407,116,424,-228
1332,0,2022-09-30T19:56:45.894495,570062,-1777,-411,-81,-1124,-475,-313,116,424,-228
1333,0,2022-09-30T19:56:45.901005,570068,-1777,-411,-81,-1124,-475,-313,116,424,-228
1334,0,2022-09-30T19:56:45.908136,570076,-1777,-411,-81,-1124,-475,-313,116,424,-228
1335,0,2022-09-30T19:56:45.913174,570081,-1784,-401,-109,-1116,-736,-271,116,424,-228
1336,0,2022-09-30T19:56:45.919244,570087,-1784,-401,-109,-1116,-736,-271,116,424,-228
1337,0,2022-09-30T19:56:45.927232,570095,-1784,-401,-109,-1116,-736,-271,116,424,-228
1338,0,2022-09-30T19:56:45.932482,570100,-1785,-398,-115,-1063,-718,-236,127,423,-221
1339,0,2022-09-30T19:56:45.938662,570106,-1785,-398,-115,-1063,-718,-236,127,423,-221
1340,0,2022-09-30T19:56:45.944907,570113,-1785,-398,-115,-1063,-718,-236,127,423,-221
1341,0,2022-09-30T19:56:45.950992,570119,-1785,-398,-115,-1063,-718,-236,127,423,-221
1342,0,2022-09-30T19:56:45.956525,570124,-1785,-398,-115,-1063,-718,-236,127,423,-221
1343,0,2022-09-30T19:56:45.962308,570130,-1785,-398,-115,-1063,-718,-236,127,423,-221
1344,0,2022-09-30T19:56:45.968941,570136,-1785,-398,-115,-1063,-718,-236,127,423,-221
1345,0,2022-09-30T19:56:45.974462,570142,-1761,-393,-85,-1047,-413,-213,127,423,-221
1346,0,2022-09-30T19:56:45.981282,570148,-1761,-393,-85,-1047,-413,-213,127,423,-221
1347,0,2022-09-30T19:56:45.986613,570155,-1761,-393,-85,-1047,-413,-213,127,423,-221
1348,0,2022-09-30T19:56:45.992047,570160,-1771,-392,-84,-1153,-762,-95,127,423,-221
1349,0,2022-09-30T19:56:45.999038,570166,-1771,-392,-84,-1153,-762,-95,127,423,-221
1350,0,2022-09-30T19:56:46.004958,570172,-1771,-392,-84,-1153,-762,-95,127,423,-221
1351,0,2022-09-30T19:56:46.013494,570180,-1792,-395,-98,-1304,-921,21,127,423,-221
1352,0,2022-09-30T19:56:46.020399,570187,-1792,-395,-98,-1304,-921,21,127,423,-221
1353,0,2022-09-30T19:56:46.027480,570194,-1792,-395,-98,-1304,-921,21,127,423,-221
1354,0,2022-09-30T19:56:46.033946,570201,-1794,-398,-114,-1364,-766,-255,127,423,-221
1355,0,2022-09-30T19:56:46.041083,570208,-1794,-398,-114,-1364,-766,-255,127,423,-221
1356,0,2022-09-30T19:56:46.049665,570216,-1794,-398,-114,-1364,-766,-255,127,423,-221
1357,0,2022-09-30T19:56:46.057986,570223,-1777,-399,-99,-1230,-373,-553,127,423,-221
1358,0,2022-09-30T19:56:46.066201,570232,-1777,-399,-99,-1230,-373,-553,127,423,-221
1359,0,2022-09-30T19:56:46.074580,570241,-1768,-404,-65,-1232,-179,-244,120,422,-220
1360,0,2022-09-30T19:56:46.082240,570249,-1768,-404,-65,-1232,-179,-244,120,422,-220
1361,0,2022-09-30T19:56:46.089665,570256,-1768,-404,-65,-1232,-179,-244,120,422,-220
1362,0,2022-09-30T19:56:46.095316,570263,-1778,-403,-90,-1326,-546,-74,120,422,-220
1363,0,2022-09-30T19:56:46.103229,570269,-1778,-403,-90,-1326,-546,-74,120,422,-220
1364,0,2022-09-30T19:56:46.112099,570278,-1775,-396,-108,-1215,-990,-235,120,422,-220
1365,0,2022-09-30T19:56:46.119892,570287,-1775,-396,-108,-1215,-990,-235,120,422,-220
1366,0,2022-09-30T19:56:46.127135,570294,-1775,-396,-108,-1215,-990,-235,120,422,-220
1367,0,2022-09-30T19:56:46.135792,570301,-1778,-397,-109,-1100,-796,-307,120,422,-220
1368,0,2022-09-30T19:56:46.143415,570310,-1778,-397,-109,-1100,-796,-307,120,422,-220
1369,0,2022-09-30T19:56:46.151741,570318,-1780,-396,-105,-1118,-542,-390,120,422,-220
1370,0,2022-09-30T19:56:46.159617,570326,-1780,-396,-105,-1118,-542,-390,120,422,-220
1371,0,2022-09-30T19:56:46.166506,570333,-1780,-396,-105,-1118,-542,-390,120,422,-220
1372,0,2022-09-30T19:56:46.175504,570342,-1783,-394,-97,-1164,-551,-325,120,422,-220
1373,0,2022-09-30T19:56:46.184033,570350,-1783,-394,-97,-1164,-551,-325,120,422,-220
1374,0,2022-09-30T19:56:46.193719,570359,-1789,-397,-102,-1180,-581,-211,117,419,-223
1375,0,2022-09-30T19:56:46.201703,570369,-1789,-397,-102,-1180,-581,-211,117,419,-223
1376,0,2022-09-30T19:56:46.209624,570376,-1789,-397,-102,-1180,-581,-211,117,419,-223
1377,0,2022-09-30T19:56:46.216428,570383,-1778,-396,-108,-1166,-569,-340,117,419,-223
1378,0,2022-09-30T19:56:46.224591,570391,-1778,-396,-108,-1166,-569,-340,117,419,-223
1379,0,2022-09-30T19:56:46.234267,570399,-1767,-407,-101,-1098,-559,-364,117,419,-223
1380,0,2022-09-30T19:56:46.242080,570408,-1767,-407,-101,-1098,-559,-364,117,419,-223
1381,0,2022-09-30T19:56:46.250060,570417,-1767,-407,-101,-1098,-559,-364,117,419,-223
1382,0,2022-09-30T19:56:46.258362,570424,-1773,-407,-87,-1209,-494,-258,117,419,-223
1383,0,2022-09-30T19:56:46.265678,570432,-1773,-407,-87,-1209,-494,-258,117,419,-223
1384,0,2022-09-30T19:56:46.274600,570440,-1776,-399,-96,-1228,-638,-327,117,419,-223
1385,0,2022-09-30T19:56:46.283216,570448,-1776,-399,-96,-1228,-638,-327,117,419,-223
1386,0,2022-09-30T19:56:46.292083,570459,-1776,-399,-96,-1228,-638,-327,117,419,-223
1387,0,2022-09-30T19:56:46.298812,570465,-1778,-393,-98,-1226,-719,-326,117,419,-223
1388,0,2022-09-30T19:56:46.307083,570473,-1778,-393,-98,-1226,-719,-326,117,419,-223
1389,0,2022-09-30T19:56:46.315131,570481,-1786,-399,-106,-1318,-692,-205,117,419,-223
1390,0,2022-09-30T19:56:46.322832,570489,-1786,-399,-106,-1318,-692,-205,117,419,-223
1391,0,2022-09-30T19:56:46.332040,570498,-1786,-399,-106,-1318,-692,-205,117,419,-223
1392,0,2022-09-30T19:56:46.338964,570505,-1777,-399,-105,-1257,-664,-307,124,420,-230
1393,0,2022-09-30T19:56:46.347406,570513,-1777,-399,-105,-1257,-664,-307,124,420,-230
1394,0,2022-09-30T19:56:46.356046,570522,-1776,-403,-88,-1126,-600,-296,124,420,-230
1395,0,2022-09-30T19:56:46.364561,570530,-1776,-403,-88,-1126,-600,-296,124,420,-230
1396,0,2022-09-30T19:56:46.370975,570537,-1776,-403,-88,-1126,-600,-296,124,420,-230
1397,0,2022-09-30T19:56:46.376642,570544,-1778,-393,-107,-1175,-611,-236,124,420,-230
1398,0,2022-09-30T19:56:46.387911,570554,-1778,-393,-107,-1175,-611,-236,124,420,-230
1399,0,2022-09-30T19:56:46.396662,570563,-1780,-397,-103,-1174,-578,-208,124,420,-230
1400,0,2022-09-30T19:56:46.404961,570571,-1780,-397,-103,-1174,-578,-208,124,420,-230
1401,0,2022-09-30T19:56:46.414039,570580,-1780,-400,-90,-1122,-551,-255,124,420,-230
1402,0,2022-09-30T19:56:46.421585,570589,-1780,-400,-90,-1122,-551,-255,124,420,-230
1403,0,2022-09-30T19:56:46.430807,570597,-1780,-400,-90,-1122,-551,-255,124,420,-230
1404,0,2022-09-30T19:56:46.436818,570604,-1771,-397,-85,-1196,-626,-331,124,420,-230
1405,0,2022-09-30T19:56:46.443185,570609,-1771,-397,-85,-1196,-626,-331,124,420,-230
1406,0,2022-09-30T19:56:46.450647,570617,-1771,-397,-85,-1196,-626,-331,124,420,-230
1407,0,2022-09-30T19:56:46.456119,570624,-1772,-399,-93,-1350,-709,-191,123,415,-229
1408,0,2022-09-30T19:56:46.464791,570631,-1772,-399,-93,-1350,-709,-191,123,415,-229
1409,0,2022-09-30T19:56:46.471714,570639,-1779,-398,-108,-1331,-770,-229,123,415,-229
1410,0,2022-09-30T19:56:46.479472,570646,-1779,-398,-108,-1331,-770,-229,123,415,-229
1411,0,2022-09-30T19:56:46.486871,570652,-1779,-398,-108,-1331,-770,-229,123,415,-229
1412,0,2022-09-30T19:56:46.494588,570660,-1777,-392,-117,-1192,-738,-300,123,415,-229
1413,0,2022-09-30T19:56:46.502379,570669,-1777,-392,-117,-1192,-738,-300,123,415,-229
1414,0,2022-09-30T19:56:46.511072,570678,-1777,-392,-117,-1192,-738,-300,123,415,-229
1415,0,2022-09-30T19:56:46.517504,570684,-1783,-402,-97,-1171,-492,-155,123,415,-229
1416,0,2022-09-30T19:56:46.525631,570692,-1783,-402,-97,-1171,-492,-155,123,415,-229
1417,0,2022-09-30T19:56:46.532424,570699,-1786,-404,-86,-1272,-432,-199,123,415,-229
1418,0,2022-09-30T19:56:46.540190,570706,-1786,-404,-86,-1272,-432,-199,123,415,-229
1419,0,2022-09-30T19:56:46.546718,570713,-1786,-404,-86,-1272,-432,-199,123,415,-229
1420,0,2022-09-30T19:56:46.555374,570722,-1770,-400,-84,-1240,-619,-363,123,415,-229
