,imu,server_time,arduino_time,ax,ay,az,gx,gy,gz,mx,my,mz
0,1,2022-09-30T19:56:36.396510,560562,-1640,652,-882,-1542,-364,-63,263,403,-15
1,1,2022-09-30T19:56:36.411361,560577,-1640,652,-882,-1542,-364,-63,263,403,-15
2,1,2022-09-30T19:56:36.420185,560586,-1636,644,-880,-1517,-337,-53,264,416,-12
3,1,2022-09-30T19:56:36.426068,560592,-1636,644,-880,-1517,-337,-53,264,416,-12
4,1,2022-09-30T19:56:36.432414,560599,-1636,644,-880,-1517,-337,-53,264,416,-12
5,1,2022-09-30T19:56:36.438642,560605,-1637,649,-885,-1474,-300,-43,264,416,-12
6,1,2022-09-30T19:56:36.444938,560611,-1637,649,-885,-1474,-300,-43,264,416,-12
7,1,2022-09-30T19:56:36.450948,560617,-1637,649,-885,-1474,-300,-43,264,416,-12
8,1,2022-09-30T19:56:36.457000,560623,-1639,656,-888,-1442,-289,-18,264,416,-12
9,1,2022-09-30T19:56:36.463494,560629,-1639,656,-888,-1442,-289,-18,264,416,-12
10,1,2022-09-30T19:56:36.471720,560638,-1639,656,-888,-1442,-289,-18,264,416,-12
11,1,2022-09-30T19:56:36.477986,560644,-1643,661,-886,-1438,-295,2,264,416,-12
12,1,2022-09-30T19:56:36.484478,560651,-1643,661,-886,-1438,-295,2,264,416,-12
13,1,2022-09-30T19:56:36.493925,560658,-1643,661,-886,-1438,-295,2,264,416,-12
14,1,2022-09-30T19:56:36.500530,560666,-1644,661,-888,-1460,-322,45,264,416,-12
15,1,2022-09-30T19:56:36.507735,560674,-1644,661,-888,-1460,-322,45,264,416,-12
16,1,2022-09-30T19:56:36.514963,560681,-1644,661,-888,-1460,-322,45,264,416,-12
17,1,2022-09-30T19:56:36.522036,560688,-1637,661,-889,-1473,-340,69,264,416,-12
18,1,2022-09-30T19:56:36.531323,560697,-1637,661,-889,-1473,-340,69,264,416,-12
19,1,2022-09-30T19:56:36.537414,560704,-1637,661,-889,-1494,-343,36,251,405,-17
20,1,2022-09-30T19:56:36.543452,560710,-1637,661,-889,-1494,-343,36,251,405,-17
21,1,2022-09-30T19:56:36.551419,560717,-1637,661,-889,-1494,-343,36,251,405,-17
22,1,2022-09-30T19:56:36.557461,560723,-1641,666,-883,-1532,-326,-25,251,405,-17
23,1,2022-09-30T19:56:36.563478,560730,-1641,666,-883,-1532,-326,-25,251,405,-17
24,1,2022-09-30T19:56:36.569568,560736,-1641,666,-883,-1532,-326,-25,251,405,-17
25,1,2022-09-30T19:56:36.576491,560743,-1637,666,-889,-1578,-328,-82,251,405,-17
26,1,2022-09-30T19:56:36.585798,560752,-1637,666,-889,-1578,-328,-82,251,405,-17
27,1,2022-09-30T19:56:36.593277,560759,-1637,666,-889,-1578,-328,-82,251,405,-17
28,1,2022-09-30T19:56:36.599597,560765,-1636,659,-885,-1622,-351,-121,251,405,-17
29,1,2022-09-30T19:56:36.606770,560773,-1636,659,-885,-1622,-351,-121,251,405,-17
30,1,2022-09-30T19:56:36.614162,560781,-1636,659,-885,-1622,-351,-121,251,405,-17
31,1,2022-09-30T19:56:36.619674,560786,-1644,657,-893,-1646,-364,-146,251,405,-17
32,1,2022-09-30T19:56:36.626628,560792,-1644,657,-893,-1646,-364,-146,251,405,-17
33,1,2022-09-30T19:56:36.634644,560800,-1644,657,-893,-1646,-364,-146,251,405,-17
34,1,2022-09-30T19:56:36.651301,560807,-1640,653,-885,-1645,-401,-162,251,405,-17
35,1,2022-09-30T19:56:36.661948,560828,-1641,648,-887,-1635,-436,-165,251,405,-17
36,1,2022-09-30T19:56:36.671102,560838,-1641,648,-887,-1635,-436,-165,251,405,-17
37,1,2022-09-30T19:56:36.678934,560844,-1641,647,-881,-1610,-458,-181,265,411,-13
38,1,2022-09-30T19:56:36.686959,560852,-1641,647,-881,-1610,-458,-181,265,411,-13
39,1,2022-09-30T19:56:36.695189,560861,-1641,647,-881,-1610,-458,-181,265,411,-13
40,1,2022-09-30T19:56:36.702450,560868,-1640,649,-882,-1603,-455,-191,265,411,-13
41,1,2022-09-30T19:56:36.711513,560878,-1640,649,-882,-1603,-455,-191,265,411,-13
42,1,2022-09-30T19:56:36.718179,560884,-1638,653,-876,-1607,-429,-186,265,411,-13
43,1,2022-09-30T19:56:36.726655,560892,-1638,653,-876,-1607,-429,-186,265,411,-13
44,1,2022-09-30T19:56:36.736072,560902,-1638,653,-876,-1607,-429,-186,265,411,-13
45,1,2022-09-30T19:56:36.743694,560909,-1639,653,-876,-1620,-398,-143,265,411,-13
46,1,2022-09-30T19:56:36.752335,560917,-1639,653,-876,-1620,-398,-143,265,411,-13
47,1,2022-09-30T19:56:36.758815,560925,-1639,651,-874,-1641,-373,-81,265,411,-13
48,1,2022-09-30T19:56:36.766309,560932,-1639,651,-874,-1641,-373,-81,265,411,-13
49,1,2022-09-30T19:56:36.775794,560941,-1639,651,-874,-1641,-373,-81,265,411,-13
50,1,2022-09-30T19:56:36.781705,560948,-1639,649,-875,-1649,-363,-41,265,411,-13
51,1,2022-09-30T19:56:36.791705,560958,-1639,649,-875,-1649,-363,-41,265,411,-13
52,1,2022-09-30T19:56:36.797825,560964,-1640,642,-877,-1630,-350,-25,257,405,-21
53,1,2022-09-30T19:56:36.805151,560971,-1640,642,-877,-1630,-350,-25,257,405,-21
54,1,2022-09-30T19:56:36.811105,560977,-1640,642,-877,-1630,-350,-25,257,405,-21
55,1,2022-09-30T19:56:36.818126,560984,-1641,646,-875,-1610,-351,-49,257,405,-21
56,1,2022-09-30T19:56:36.826138,560993,-1641,646,-875,-1610,-351,-49,257,405,-21
57,1,2022-09-30T19:56:36.835135,561001,-1641,646,-875,-1610,-351,-49,257,405,-21
58,1,2022-09-30T19:56:36.841161,561007,-1640,647,-881,-1586,-340,-84,257,405,-21
59,1,2022-09-30T19:56:36.849950,561016,-1640,647,-881,-1586,-340,-84,257,405,-21
60,1,2022-09-30T19:56:36.856011,561022,-1637,649,-884,-1571,-316,-93,257,405,-21
61,1,2022-09-30T19:56:36.863637,561030,-1637,649,-884,-1571,-316,-93,257,405,-21
62,1,2022-09-30T19:56:36.869881,561036,-1637,649,-884,-1571,-316,-93,257,405,-21
63,1,2022-09-30T19:56:36.875747,561042,-1641,647,-884,-1559,-298,-68,257,405,-21
64,1,2022-09-30T19:56:36.881778,561048,-1641,647,-884,-1559,-298,-68,257,405,-21
65,1,2022-09-30T19:56:36.889622,561056,-1641,647,-884,-1559,-298,-68,257,405,-21
66,1,2022-09-30T19:56:36.894955,561061,-1641,647,-884,-1559,-298,-68,257,405,-21
67,1,2022-09-30T19:56:36.900805,561068,-1642,652,-887,-1557,-276,-47,257,405,-21
68,1,2022-09-30T19:56:36.907135,561074,-1642,652,-887,-1557,-276,-47,257,405,-21
69,1,2022-09-30T19:56:36.912647,561080,-1642,652,-887,-1557,-276,-47,257,405,-21
70,1,2022-09-30T19:56:36.919198,561085,-1645,654,-888,-1546,-286,-7,265,399,-19
71,1,2022-09-30T19:56:36.927332,561093,-1645,654,-888,-1546,-286,-7,265,399,-19
72,1,2022-09-30T19:56:36.938320,561104,-1642,653,-883,-1558,-339,26,265,399,-19
73,1,2022-09-30T19:56:36.950159,561117,-1642,653,-883,-1558,-339,26,265,399,-19
74,1,2022-09-30T19:56:36.959887,561126,-1649,657,-886,-1570,-368,15,265,399,-19
75,1,2022-09-30T19:56:36.970328,561137,-1649,657,-886,-1570,-368,15,265,399,-19
76,1,2022-09-30T19:56:36.979780,561145,-1649,657,-886,-1570,-368,15,265,399,-19
77,1,2022-09-30T19:56:36.987390,561154,-1649,657,-886,-1570,-368,15,265,399,-19
78,1,2022-09-30T19:56:36.996577,561163,-1624,647,-885,-1613,-411,3,265,399,-19
79,1,2022-09-30T19:56:37.007091,561173,-1624,647,-885,-1613,-411,3,265,399,-19
80,1,2022-09-30T19:56:37.015922,561182,-1638,653,-881,-1586,-280,-47,265,399,-19
81,1,2022-09-30T19:56:37.023633,561189,-1638,653,-881,-1586,-280,-47,265,399,-19
82,1,2022-09-30T19:56:37.033139,561200,-1638,653,-881,-1586,-280,-47,265,399,-19
83,1,2022-09-30T19:56:37.040150,561206,-1649,651,-888,-1550,-294,-45,255,409,-23
84,1,2022-09-30T19:56:37.046720,561213,-1649,651,-888,-1550,-294,-45,255,409,-23
85,1,2022-09-30T19:56:37.053842,561220,-1649,651,-888,-1550,-294,-45,255,409,-23
86,1,2022-09-30T19:56:37.060654,561227,-1647,648,-885,-1532,-398,-29,255,409,-23
87,1,2022-09-30T19:56:37.068916,561233,-1647,648,-885,-1532,-398,-29,255,409,-23
88,1,2022-09-30T19:56:37.075500,561243,-1638,645,-880,-1494,-445,-28,255,409,-23
89,1,2022-09-30T19:56:37.081441,561248,-1638,645,-880,-1494,-445,-28,255,409,-23
90,1,2022-09-30T19:56:37.088847,561256,-1638,645,-880,-1494,-445,-28,255,409,-23
91,1,2022-09-30T19:56:37.095369,561261,-1638,645,-880,-1494,-445,-28,255,409,-23
92,1,2022-09-30T19:56:37.101984,561268,-1635,649,-882,-1449,-407,-23,255,409,-23
93,1,2022-09-30T19:56:37.111133,561277,-1635,649,-882,-1449,-407,-23,255,409,-23
94,1,2022-09-30T19:56:37.117246,561284,-1639,654,-879,-1434,-345,12,255,409,-23
95,1,2022-09-30T19:56:37.123010,561290,-1639,654,-879,-1434,-345,12,255,409,-23
96,1,2022-09-30T19:56:37.129510,561295,-1639,654,-879,-1434,-345,12,255,409,-23
97,1,2022-09-30T19:56:37.134694,561302,-1639,654,-879,-1434,-345,12,255,409,-23
98,1,2022-09-30T19:56:37.140070,561307,-1642,662,-884,-1434,-314,72,255,409,-23
99,1,2022-09-30T19:56:37.147349,561314,-1642,662,-884,-1434,-314,72,255,409,-23
100,1,2022-09-30T19:56:37.154999,561321,-1642,662,-884,-1434,-314,72,255,409,-23
101,1,2022-09-30T19:56:37.160320,561328,-1640,662,-885,-1457,-322,152,255,409,-23
102,1,2022-09-30T19:56:37.166650,561334,-1640,662,-885,-1457,-322,152,255,409,-23
103,1,2022-09-30T19:56:37.173017,561340,-1640,662,-885,-1457,-322,152,255,409,-23
104,1,2022-09-30T19:56:37.179306,561345,-1640,667,-887,-1485,-324,198,259,407,-17
105,1,2022-09-30T19:56:37.185931,561352,-1640,667,-887,-1485,-324,198,259,407,-17
106,1,2022-09-30T19:56:37.193585,561360,-1640,667,-887,-1485,-324,198,259,407,-17
107,1,2022-09-30T19:56:37.202766,561369,-1634,669,-888,-1493,-326,179,259,407,-17
108,1,2022-09-30T19:56:37.213158,561380,-1634,669,-888,-1493,-326,179,259,407,-17
109,1,2022-09-30T19:56:37.218798,561386,-1651,676,-886,-1522,-336,107,259,407,-17
110,1,2022-09-30T19:56:37.225671,561392,-1651,676,-886,-1522,-336,107,259,407,-17
111,1,2022-09-30T19:56:37.231149,561398,-1651,676,-886,-1522,-336,107,259,407,-17
112,1,2022-09-30T19:56:37.236957,561403,-1639,674,-884,-1572,-424,69,259,407,-17
113,1,2022-09-30T19:56:37.243314,561410,-1639,674,-884,-1572,-424,69,259,407,-17
114,1,2022-09-30T19:56:37.250853,561418,-1639,674,-884,-1572,-424,69,259,407,-17
115,1,2022-09-30T19:56:37.256796,561423,-1637,673,-875,-1604,-458,49,259,407,-17
116,1,2022-09-30T19:56:37.262883,561430,-1637,673,-875,-1604,-458,49,259,407,-17
117,1,2022-09-30T19:56:37.270623,561437,-1637,673,-875,-1604,-458,49,259,407,-17
118,1,2022-09-30T19:56:37.275829,561443,-1642,664,-877,-1616,-424,5,259,407,-17
119,1,2022-09-30T19:56:37.281608,561448,-1642,664,-877,-1616,-424,5,259,407,-17
120,1,2022-09-30T19:56:37.287382,561454,-1642,664,-877,-1616,-424,5,259,407,-17
121,1,2022-09-30T19:56:37.293009,561460,-1642,664,-877,-1616,-424,5,259,407,-17
122,1,2022-09-30T19:56:37.299740,561466,-1639,663,-867,-1587,-438,-40,259,409,-19
123,1,2022-09-30T19:56:37.306072,561472,-1639,663,-867,-1587,-438,-40,259,409,-19
124,1,2022-09-30T19:56:37.312264,561479,-1639,663,-867,-1587,-438,-40,259,409,-19
125,1,2022-09-30T19:56:37.318152,561484,-1637,665,-869,-1545,-443,-71,259,409,-19
126,1,2022-09-30T19:56:37.325430,561492,-1637,665,-869,-1545,-443,-71,259,409,-19
127,1,2022-09-30T19:56:37.333276,561499,-1637,665,-869,-1545,-443,-71,259,409,-19
128,1,2022-09-30T19:56:37.339244,561506,-1637,663,-864,-1502,-439,-84,259,409,-19
129,1,2022-09-30T19:56:37.345243,561512,-1637,663,-864,-1502,-439,-84,259,409,-19
130,1,2022-09-30T19:56:37.353277,561520,-1637,663,-864,-1502,-439,-84,259,409,-19
131,1,2022-09-30T19:56:37.359591,561526,-1636,664,-876,-1462,-409,-76,259,409,-19
132,1,2022-09-30T19:56:37.365178,561531,-1636,664,-876,-1462,-409,-76,259,409,-19
133,1,2022-09-30T19:56:37.371549,561538,-1636,664,-876,-1462,-409,-76,259,409,-19
134,1,2022-09-30T19:56:37.378410,561545,-1638,666,-874,-1438,-369,-76,259,409,-19
135,1,2022-09-30T19:56:37.385087,561552,-1638,666,-874,-1438,-369,-76,259,409,-19
136,1,2022-09-30T19:56:37.392353,561559,-1638,666,-874,-1438,-369,-76,259,409,-19
137,1,2022-09-30T19:56:37.398250,561565,-1639,664,-874,-1429,-337,-71,259,409,-19
138,1,2022-09-30T19:56:37.406365,561572,-1639,664,-874,-1429,-337,-71,259,409,-19
139,1,2022-09-30T19:56:37.413413,561581,-1639,664,-874,-1429,-337,-71,259,409,-19
140,1,2022-09-30T19:56:37.419437,561586,-1635,657,-870,-1429,-316,-65,255,403,-17
141,1,2022-09-30T19:56:37.425733,561592,-1635,657,-870,-1429,-316,-65,255,403,-17
142,1,2022-09-30T19:56:37.432390,561598,-1635,657,-870,-1429,-316,-65,255,403,-17
143,1,2022-09-30T19:56:37.438221,561605,-1640,655,-875,-1415,-302,-81,255,403,-17
144,1,2022-09-30T19:56:37.443865,561610,-1640,655,-875,-1415,-302,-81,255,403,-17
145,1,2022-09-30T19:56:37.451192,561618,-1640,655,-875,-1415,-302,-81,255,403,-17
146,1,2022-09-30T19:56:37.456936,561624,-1638,656,-876,-1379,-288,-103,255,403,-17
147,1,2022-09-30T19:56:37.463300,561630,-1638,656,-876,-1379,-288,-103,255,403,-17
148,1,2022-09-30T19:56:37.471077,561638,-1638,656,-876,-1379,-288,-103,255,403,-17
149,1,2022-09-30T19:56:37.477106,561644,-1641,658,-879,-1340,-298,-117,255,403,-17
150,1,2022-09-30T19:56:37.482373,561649,-1641,658,-879,-1340,-298,-117,255,403,-17
151,1,2022-09-30T19:56:37.489415,561656,-1641,658,-879,-1340,-298,-117,255,403,-17
152,1,2022-09-30T19:56:37.496413,561662,-1647,657,-885,-1312,-315,-137,255,403,-17
153,1,2022-09-30T19:56:37.501954,561669,-1647,657,-885,-1312,-315,-137,255,403,-17
154,1,2022-09-30T19:56:37.507807,561675,-1647,657,-885,-1312,-315,-137,255,403,-17
155,1,2022-09-30T19:56:37.513048,561680,-1647,657,-885,-1312,-315,-137,255,403,-17
156,1,2022-09-30T19:56:37.519236,561686,-1643,657,-876,-1307,-356,-145,255,403,-17
157,1,2022-09-30T19:56:37.525349,561692,-1643,657,-876,-1307,-356,-145,255,403,-17
158,1,2022-09-30T19:56:37.532371,561699,-1643,657,-876,-1307,-356,-145,255,403,-17
159,1,2022-09-30T19:56:37.538562,561705,-1641,657,-878,-1349,-365,-136,254,402,-16
160,1,2022-09-30T19:56:37.549207,561712,-1641,657,-878,-1349,-365,-136,254,402,-16
161,1,2022-09-30T19:56:37.557219,561724,-1638,658,-879,-1390,-344,-109,254,402,-16
162,1,2022-09-30T19:56:37.563600,561730,-1638,658,-879,-1390,-344,-109,254,402,-16
163,1,2022-09-30T19:56:37.572204,561738,-1638,658,-879,-1390,-344,-109,254,402,-16
164,1,2022-09-30T19:56:37.578662,561745,-1635,661,-879,-1431,-313,-36,254,402,-16
165,1,2022-09-30T19:56:37.585149,561752,-1635,661,-879,-1431,-313,-36,254,402,-16
166,1,2022-09-30T19:56:37.593244,561760,-1635,661,-879,-1431,-313,-36,254,402,-16
167,1,2022-09-30T19:56:37.598555,561766,-1638,664,-878,-1489,-273,40,254,402,-16
168,1,2022-09-30T19:56:37.605651,561771,-1638,664,-878,-1489,-273,40,254,402,-16
169,1,2022-09-30T19:56:37.613653,561780,-1638,664,-878,-1489,-273,40,254,402,-16
170,1,2022-09-30T19:56:37.619224,561786,-1647,667,-886,-1535,-266,97,254,402,-16
171,1,2022-09-30T19:56:37.626652,561794,-1647,667,-886,-1535,-266,97,254,402,-16
172,1,2022-09-30T19:56:37.635090,561802,-1647,667,-886,-1535,-266,97,254,402,-16
173,1,2022-09-30T19:56:37.640669,561808,-1646,665,-883,-1564,-322,124,254,402,-16
174,1,2022-09-30T19:56:37.646609,561813,-1646,665,-883,-1564,-322,124,254,402,-16
175,1,2022-09-30T19:56:37.652376,561819,-1646,665,-883,-1564,-322,124,254,402,-16
176,1,2022-09-30T19:56:37.658184,561825,-1640,662,-886,-1560,-382,114,254,402,-16
177,1,2022-09-30T19:56:37.664094,561830,-1640,662,-886,-1560,-382,114,254,402,-16
178,1,2022-09-30T19:56:37.671643,561839,-1640,662,-886,-1560,-382,114,254,402,-16
179,1,2022-09-30T19:56:37.678236,561845,-1641,666,-877,-1527,-389,71,258,404,-12
180,1,2022-09-30T19:56:37.683684,561851,-1641,666,-877,-1527,-389,71,258,404,-12
181,1,2022-09-30T19:56:37.690756,561858,-1641,666,-877,-1527,-389,71,258,404,-12
182,1,2022-09-30T19:56:37.695650,561863,-1636,671,-870,-1497,-398,40,258,404,-12
183,1,2022-09-30T19:56:37.701238,561867,-1636,671,-870,-1497,-398,40,258,404,-12
184,1,2022-09-30T19:56:37.707314,561874,-1636,671,-870,-1497,-398,40,258,404,-12
185,1,2022-09-30T19:56:37.715588,561882,-1636,671,-870,-1497,-398,40,258,404,-12
186,1,2022-09-30T19:56:37.720920,561888,-1637,669,-878,-1465,-386,22,258,404,-12
187,1,2022-09-30T19:56:37.727573,561894,-1637,669,-878,-1465,-386,22,258,404,-12
188,1,2022-09-30T19:56:37.735576,561903,-1651,678,-873,-1461,-400,-13,258,404,-12
189,1,2022-09-30T19:56:37.742711,561909,-1651,678,-873,-1461,-400,-13,258,404,-12
190,1,2022-09-30T19:56:37.750435,561917,-1651,678,-873,-1461,-400,-13,258,404,-12
191,1,2022-09-30T19:56:37.756135,561923,-1647,678,-867,-1492,-467,-17,258,404,-12
192,1,2022-09-30T19:56:37.761746,561929,-1647,678,-867,-1492,-467,-17,258,404,-12
193,1,2022-09-30T19:56:37.769323,561936,-1647,678,-867,-1492,-467,-17,258,404,-12
194,1,2022-09-30T19:56:37.774738,561942,-1647,678,-867,-1492,-467,-17,258,404,-12
195,1,2022-09-30T19:56:37.780726,561947,-1628,671,-872,-1518,-480,-31,258,404,-12
196,1,2022-09-30T19:56:37.787108,561954,-1628,671,-872,-1518,-480,-31,258,404,-12
197,1,2022-09-30T19:56:37.793891,561960,-1628,671,-872,-1518,-480,-31,258,404,-12
198,1,2022-09-30T19:56:37.799284,561967,-1628,665,-869,-1514,-344,-92,255,405,-13
199,1,2022-09-30T19:56:37.805333,561972,-1628,665,-869,-1514,-344,-92,255,405,-13
200,1,2022-09-30T19:56:37.810939,561978,-1628,665,-869,-1514,-344,-92,255,405,-13
201,1,2022-09-30T19:56:37.816001,561983,-1635,666,-873,-1488,-235,-151,255,405,-13
202,1,2022-09-30T19:56:37.821563,561988,-1635,666,-873,-1488,-235,-151,255,405,-13
203,1,2022-09-30T19:56:37.827390,561994,-1635,666,-873,-1488,-235,-151,255,405,-13
204,1,2022-09-30T19:56:37.834782,561999,-1635,666,-873,-1488,-235,-151,255,405,-13
205,1,2022-09-30T19:56:37.840332,562008,-1642,661,-873,-1461,-230,-173,255,405,-13
206,1,2022-09-30T19:56:37.845663,562013,-1642,661,-873,-1461,-230,-173,255,405,-13
207,1,2022-09-30T19:56:37.850658,562018,-1642,661,-873,-1461,-230,-173,255,405,-13
208,1,2022-09-30T19:56:37.856470,562023,-1643,661,-880,-1432,-276,-167,255,405,-13
209,1,2022-09-30T19:56:37.862504,562029,-1643,661,-880,-1432,-276,-167,255,405,-13
210,1,2022-09-30T19:56:37.868205,562035,-1643,661,-880,-1432,-276,-167,255,405,-13
211,1,2022-09-30T19:56:37.874309,562041,-1643,661,-880,-1432,-276,-167,255,405,-13
212,1,2022-09-30T19:56:37.880072,562046,-1641,658,-877,-1397,-306,-169,255,405,-13
213,1,2022-09-30T19:56:37.886111,562053,-1641,658,-877,-1397,-306,-169,255,405,-13
214,1,2022-09-30T19:56:37.894314,562061,-1641,658,-877,-1397,-306,-169,255,405,-13
215,1,2022-09-30T19:56:37.899736,562067,-1638,664,-877,-1402,-317,-179,255,405,-13
216,1,2022-09-30T19:56:37.907524,562074,-1638,664,-877,-1402,-317,-179,255,405,-13
217,1,2022-09-30T19:56:37.915396,562082,-1638,664,-877,-1402,-317,-179,255,405,-13
218,1,2022-09-30T19:56:37.921234,562088,-1637,664,-874,-1422,-318,-166,255,411,-13
219,1,2022-09-30T19:56:37.926938,562094,-1637,664,-874,-1422,-318,-166,255,411,-13
220,1,2022-09-30T19:56:37.935326,562102,-1637,664,-874,-1422,-318,-166,255,411,-13
221,1,2022-09-30T19:56:37.941185,562108,-1642,661,-880,-1461,-291,-135,255,411,-13
222,1,2022-09-30T19:56:37.947463,562114,-1642,661,-880,-1461,-291,-135,255,411,-13
223,1,2022-09-30T19:56:37.954992,562122,-1642,661,-880,-1461,-291,-135,255,411,-13
224,1,2022-09-30T19:56:37.960197,562127,-1644,659,-883,-1487,-282,-104,255,411,-13
225,1,2022-09-30T19:56:37.965838,562134,-1644,659,-883,-1487,-282,-104,255,411,-13
226,1,2022-09-30T19:56:37.974777,562142,-1644,659,-883,-1487,-282,-104,255,411,-13
227,1,2022-09-30T19:56:37.980451,562147,-1633,656,-881,-1477,-286,-84,255,411,-13
228,1,2022-09-30T19:56:37.986063,562153,-1633,656,-881,-1477,-286,-84,255,411,-13
229,1,2022-09-30T19:56:37.993409,562160,-1633,656,-881,-1477,-286,-84,255,411,-13
230,1,2022-09-30T19:56:37.999073,562166,-1647,659,-884,-1457,-276,-112,255,411,-13
231,1,2022-09-30T19:56:38.004823,562171,-1647,659,-884,-1457,-276,-112,255,411,-13
232,1,2022-09-30T19:56:38.010636,562178,-1647,659,-884,-1457,-276,-112,255,411,-13
233,1,2022-09-30T19:56:38.016712,562184,-1646,667,-879,-1479,-346,-98,255,411,-13
234,1,2022-09-30T19:56:38.022382,562189,-1646,667,-879,-1479,-346,-98,255,411,-13
235,1,2022-09-30T19:56:38.030285,562197,-1646,667,-879,-1479,-346,-98,255,411,-13
236,1,2022-09-30T19:56:38.035875,562203,-1633,667,-875,-1518,-382,-78,255,411,-13
237,1,2022-09-30T19:56:38.041326,562208,-1633,667,-875,-1518,-382,-78,256,402,-18
238,1,2022-09-30T19:56:38.046027,562213,-1633,667,-875,-1518,-382,-78,256,402,-18
239,1,2022-09-30T19:56:38.052524,562220,-1633,667,-875,-1518,-382,-78,256,402,-18
240,1,2022-09-30T19:56:38.058750,562226,-1639,662,-877,-1554,-313,-89,256,402,-18
241,1,2022-09-30T19:56:38.064241,562231,-1639,662,-877,-1554,-313,-89,256,402,-18
242,1,2022-09-30T19:56:38.069997,562236,-1639,662,-877,-1554,-313,-89,256,402,-18
243,1,2022-09-30T19:56:38.074655,562242,-1639,662,-877,-1554,-313,-89,256,402,-18
244,1,2022-09-30T19:56:38.080828,562247,-1643,661,-876,-1573,-318,-108,256,402,-18
245,1,2022-09-30T19:56:38.086950,562253,-1643,661,-876,-1573,-318,-108,256,402,-18
246,1,2022-09-30T19:56:38.091896,562258,-1643,661,-876,-1573,-318,-108,256,402,-18
247,1,2022-09-30T19:56:38.097550,562265,-1640,657,-876,-1575,-349,-108,256,402,-18
248,1,2022-09-30T19:56:38.102689,562270,-1640,657,-876,-1575,-349,-108,256,402,-18
249,1,2022-09-30T19:56:38.110257,562277,-1640,657,-876,-1575,-349,-108,256,402,-18
250,1,2022-09-30T19:56:38.115773,562282,-1640,657,-876,-1575,-349,-108,256,402,-18
251,1,2022-09-30T19:56:38.121072,562288,-1642,652,-878,-1555,-351,-82,256,402,-18
252,1,2022-09-30T19:56:38.127743,562295,-1642,652,-878,-1555,-351,-82,256,402,-18
253,1,2022-09-30T19:56:38.135011,562302,-1642,652,-878,-1555,-351,-82,256,402,-18
254,1,2022-09-30T19:56:38.140253,562308,-1640,657,-878,-1532,-356,-53,256,402,-18
255,1,2022-09-30T19:56:38.146924,562314,-1640,657,-878,-1532,-356,-53,256,402,-18
256,1,2022-09-30T19:56:38.152934,562320,-1640,657,-878,-1532,-356,-53,256,402,-18
257,1,2022-09-30T19:56:38.159277,562326,-1632,660,-876,-1500,-348,7,256,402,-18
258,1,2022-09-30T19:56:38.165400,562332,-1632,660,-876,-1500,-348,7,256,402,-18
259,1,2022-09-30T19:56:38.173030,562340,-1632,660,-876,-1500,-348,7,256,402,-18
260,1,2022-09-30T19:56:38.178811,562345,-1632,659,-875,-1475,-314,35,255,399,-11
261,1,2022-09-30T19:56:38.185605,562353,-1632,659,-875,-1475,-314,35,255,399,-11
262,1,2022-09-30T19:56:38.191696,562359,-1632,659,-875,-1475,-314,35,255,399,-11
263,1,2022-09-30T19:56:38.196659,562364,-1636,662,-882,-1441,-284,52,255,399,-11
264,1,2022-09-30T19:56:38.202764,562370,-1636,662,-882,-1441,-284,52,255,399,-11
265,1,2022-09-30T19:56:38.207865,562375,-1636,662,-882,-1441,-284,52,255,399,-11
266,1,2022-09-30T19:56:38.212884,562380,-1636,662,-882,-1441,-284,52,255,399,-11
267,1,2022-09-30T19:56:38.218911,562385,-1640,664,-884,-1417,-271,41,255,399,-11
268,1,2022-09-30T19:56:38.224257,562392,-1640,664,-884,-1417,-271,41,255,399,-11
269,1,2022-09-30T19:56:38.229827,562397,-1640,664,-884,-1417,-271,41,255,399,-11
270,1,2022-09-30T19:56:38.234960,562402,-1640,664,-884,-1417,-271,41,255,399,-11
271,1,2022-09-30T19:56:38.240093,562407,-1640,672,-883,-1416,-274,39,255,399,-11
272,1,2022-09-30T19:56:38.245431,562412,-1640,672,-883,-1416,-274,39,255,399,-11
273,1,2022-09-30T19:56:38.251824,562419,-1640,672,-883,-1416,-274,39,255,399,-11
274,1,2022-09-30T19:56:38.257575,562424,-1643,675,-888,-1437,-275,26,255,399,-11
275,1,2022-09-30T19:56:38.262702,562429,-1643,675,-888,-1437,-275,26,255,399,-11
276,1,2022-09-30T19:56:38.268517,562436,-1643,675,-888,-1437,-275,26,255,399,-11
277,1,2022-09-30T19:56:38.273901,562441,-1643,675,-888,-1437,-275,26,255,399,-11
278,1,2022-09-30T19:56:38.280554,562447,-1639,674,-884,-1480,-312,9,255,399,-11
279,1,2022-09-30T19:56:38.286144,562453,-1639,674,-884,-1480,-312,9,255,399,-11
280,1,2022-09-30T19:56:38.291412,562458,-1639,674,-884,-1480,-312,9,255,399,-11
281,1,2022-09-30T19:56:38.296504,562464,-1644,671,-879,-1525,-337,-41,262,408,-8
282,1,2022-09-30T19:56:38.302832,562470,-1644,671,-879,-1525,-337,-41,262,408,-8
283,1,2022-09-30T19:56:38.310238,562478,-1644,671,-879,-1525,-337,-41,262,408,-8
284,1,2022-09-30T19:56:38.315514,562483,-1644,671,-879,-1525,-337,-41,262,408,-8
285,1,2022-09-30T19:56:38.321351,562488,-1646,668,-878,-1566,-365,-122,262,408,-8
286,1,2022-09-30T19:56:38.327550,562494,-1646,668,-878,-1566,-365,-122,262,408,-8
287,1,2022-09-30T19:56:38.332813,562500,-1646,668,-878,-1566,-365,-122,262,408,-8
288,1,2022-09-30T19:56:38.337963,562505,-1642,665,-877,-1591,-401,-166,262,408,-8
289,1,2022-09-30T19:56:38.343285,562510,-1642,665,-877,-1591,-401,-166,262,408,-8
290,1,2022-09-30T19:56:38.348350,562515,-1642,665,-877,-1591,-401,-166,262,408,-8
291,1,2022-09-30T19:56:38.353292,562521,-1642,665,-877,-1591,-401,-166,262,408,-8
292,1,2022-09-30T19:56:38.359149,562526,-1648,665,-874,-1615,-403,-145,262,408,-8
293,1,2022-09-30T19:56:38.365646,562533,-1648,665,-874,-1615,-403,-145,262,408,-8
294,1,2022-09-30T19:56:38.375545,562538,-1648,665,-874,-1615,-403,-145,262,408,-8
295,1,2022-09-30T19:56:38.388397,562548,-1645,664,-876,-1610,-380,-79,262,408,-8
296,1,2022-09-30T19:56:38.404583,562571,-1640,663,-875,-1609,-383,16,262,408,-8
297,1,2022-09-30T19:56:38.418248,562585,-1636,661,-872,-1595,-411,87,260,410,-16
298,1,2022-09-30T19:56:38.428847,562595,-1636,661,-872,-1595,-411,87,260,410,-16
299,1,2022-09-30T19:56:38.439423,562607,-1635,661,-872,-1546,-375,72,260,410,-16
300,1,2022-09-30T19:56:38.449276,562616,-1635,661,-872,-1546,-375,72,260,410,-16
301,1,2022-09-30T19:56:38.456149,562623,-1636,666,-872,-1448,-341,24,260,410,-16
302,1,2022-09-30T19:56:38.462548,562630,-1636,666,-872,-1448,-341,24,260,410,-16
303,1,2022-09-30T19:56:38.468993,562636,-1636,666,-872,-1448,-341,24,260,410,-16
304,1,2022-09-30T19:56:38.474062,562641,-1636,666,-872,-1448,-341,24,260,410,-16
305,1,2022-09-30T19:56:38.480187,562647,-1631,665,-870,-1388,-333,-23,260,410,-16
306,1,2022-09-30T19:56:38.486429,562654,-1631,665,-870,-1388,-333,-23,260,410,-16
307,1,2022-09-30T19:56:38.492900,562660,-1631,665,-870,-1388,-333,-23,260,410,-16
308,1,2022-09-30T19:56:38.498095,562665,-1636,668,-868,-1350,-326,-77,260,410,-16
309,1,2022-09-30T19:56:38.504581,562671,-1636,668,-868,-1350,-326,-77,260,410,-16
310,1,2022-09-30T19:56:38.511513,562678,-1636,668,-868,-1350,-326,-77,260,410,-16
311,1,2022-09-30T19:56:38.516913,562684,-1650,675,-871,-1359,-317,-140,260,410,-16
312,1,2022-09-30T19:56:38.524665,562692,-1650,675,-871,-1359,-317,-140,260,410,-16
313,1,2022-09-30T19:56:38.531203,562698,-1650,675,-871,-1359,-317,-140,260,410,-16
314,1,2022-09-30T19:56:38.536388,562704,-1648,666,-873,-1408,-326,-171,258,406,-12
315,1,2022-09-30T19:56:38.543802,562711,-1648,666,-873,-1408,-326,-171,258,406,-12
316,1,2022-09-30T19:56:38.551268,562718,-1648,666,-873,-1408,-326,-171,258,406,-12
317,1,2022-09-30T19:56:38.556649,562723,-1625,655,-876,-1437,-309,-187,258,406,-12
318,1,2022-09-30T19:56:38.564417,562732,-1625,655,-876,-1437,-309,-187,258,406,-12
319,1,2022-09-30T19:56:38.571813,562739,-1625,655,-876,-1437,-309,-187,258,406,-12
320,1,2022-09-30T19:56:38.576857,562744,-1643,650,-880,-1389,-124,-234,258,406,-12
321,1,2022-09-30T19:56:38.583239,562750,-1643,650,-880,-1389,-124,-234,258,406,-12
322,1,2022-09-30T19:56:38.589492,562757,-1643,650,-880,-1389,-124,-234,258,406,-12
323,1,2022-09-30T19:56:38.595042,562762,-1643,650,-880,-1389,-124,-234,258,406,-12
324,1,2022-09-30T19:56:38.600653,562767,-1643,657,-880,-1388,-122,-228,258,406,-12
325,1,2022-09-30T19:56:38.607867,562775,-1643,657,-880,-1388,-122,-228,258,406,-12
326,1,2022-09-30T19:56:38.615065,562782,-1643,657,-880,-1388,-122,-228,258,406,-12
327,1,2022-09-30T19:56:38.621038,562788,-1646,656,-888,-1412,-199,-157,258,406,-12
328,1,2022-09-30T19:56:38.628348,562795,-1646,656,-888,-1412,-199,-157,258,406,-12
329,1,2022-09-30T19:56:38.635643,562802,-1646,656,-888,-1412,-199,-157,258,406,-12
330,1,2022-09-30T19:56:38.641464,562808,-1647,657,-892,-1436,-252,-56,258,406,-12
331,1,2022-09-30T19:56:38.648907,562816,-1647,657,-892,-1436,-252,-56,258,406,-12
332,1,2022-09-30T19:56:38.655766,562823,-1647,657,-892,-1436,-252,-56,258,406,-12
333,1,2022-09-30T19:56:38.662901,562830,-1643,663,-886,-1481,-293,10,258,406,-12
334,1,2022-09-30T19:56:38.671107,562838,-1643,663,-886,-1481,-293,10,258,406,-12
335,1,2022-09-30T19:56:38.676651,562844,-1649,667,-882,-1543,-327,48,249,403,-17
336,1,2022-09-30T19:56:38.683578,562850,-1649,667,-882,-1543,-327,48,249,403,-17
337,1,2022-09-30T19:56:38.690551,562857,-1649,667,-882,-1543,-327,48,249,403,-17
338,1,2022-09-30T19:56:38.695451,562863,-1647,671,-878,-1602,-385,58,249,403,-17
339,1,2022-09-30T19:56:38.701678,562869,-1647,671,-878,-1602,-385,58,249,403,-17
340,1,2022-09-30T19:56:38.706802,562874,-1647,671,-878,-1602,-385,58,249,403,-17
341,1,2022-09-30T19:56:38.713324,562880,-1647,671,-878,-1602,-385,58,249,403,-17
342,1,2022-09-30T19:56:38.718657,562886,-1635,664,-878,-1640,-440,44,249,403,-17
343,1,2022-09-30T19:56:38.724448,562892,-1635,664,-878,-1640,-440,44,249,403,-17
344,1,2022-09-30T19:56:38.730545,562897,-1635,664,-878,-1640,-440,44,249,403,-17
345,1,2022-09-30T19:56:38.735383,562903,-1635,664,-878,-1640,-440,44,249,403,-17
346,1,2022-09-30T19:56:38.740769,562908,-1635,655,-878,-1625,-419,11,249,403,-17
347,1,2022-09-30T19:56:38.746851,562914,-1635,655,-878,-1625,-419,11,249,403,-17
348,1,2022-09-30T19:56:38.753601,562921,-1635,655,-878,-1625,-419,11,249,403,-17
349,1,2022-09-30T19:56:38.760041,562927,-1646,665,-879,-1574,-365,-53,249,403,-17
350,1,2022-09-30T19:56:38.767319,562934,-1646,665,-879,-1574,-365,-53,249,403,-17
351,1,2022-09-30T19:56:38.774381,562941,-1646,665,-879,-1574,-365,-53,249,403,-17
352,1,2022-09-30T19:56:38.779986,562947,-1648,670,-877,-1528,-362,-61,249,403,-17
353,1,2022-09-30T19:56:38.786766,562954,-1648,670,-877,-1528,-362,-61,249,403,-17
354,1,2022-09-30T19:56:38.793379,562961,-1648,670,-877,-1528,-362,-61,249,403,-17
355,1,2022-09-30T19:56:38.799618,562967,-1648,670,-877,-1528,-362,-61,262,400,-12
356,1,2022-09-30T19:56:38.804773,562972,-1648,670,-877,-1528,-362,-61,262,400,-12
357,1,2022-09-30T19:56:38.811111,562978,-1648,670,-877,-1528,-362,-61,262,400,-12
358,1,2022-09-30T19:56:38.816093,562983,-1633,663,-875,-1529,-325,28,262,400,-12
359,1,2022-09-30T19:56:38.822258,562990,-1633,663,-875,-1529,-325,28,262,400,-12
360,1,2022-09-30T19:56:38.827198,562995,-1633,663,-875,-1529,-325,28,262,400,-12
361,1,2022-09-30T19:56:38.833565,563001,-1633,663,-875,-1529,-325,28,262,400,-12
362,1,2022-09-30T19:56:38.839535,563007,-1638,666,-883,-1519,-273,7,262,400,-12
363,1,2022-09-30T19:56:38.845883,563013,-1638,666,-883,-1519,-273,7,262,400,-12
364,1,2022-09-30T19:56:38.852334,563019,-1638,666,-883,-1519,-273,7,262,400,-12
365,1,2022-09-30T19:56:38.858849,563026,-1644,664,-877,-1495,-267,-40,262,400,-12
366,1,2022-09-30T19:56:38.865310,563033,-1644,664,-877,-1495,-267,-40,262,400,-12
367,1,2022-09-30T19:56:38.872347,563039,-1644,664,-877,-1495,-267,-40,262,400,-12
368,1,2022-09-30T19:56:38.877588,563045,-1644,667,-884,-1483,-278,-93,262,400,-12
369,1,2022-09-30T19:56:38.884736,563051,-1644,667,-884,-1483,-278,-93,262,400,-12
370,1,2022-09-30T19:56:38.891919,563059,-1644,667,-884,-1483,-278,-93,262,400,-12
371,1,2022-09-30T19:56:38.897560,563064,-1640,667,-883,-1478,-301,-117,262,400,-12
372,1,2022-09-30T19:56:38.904304,563070,-1640,667,-883,-1478,-301,-117,262,400,-12
373,1,2022-09-30T19:56:38.911318,563078,-1640,667,-883,-1478,-301,-117,262,400,-12
374,1,2022-09-30T19:56:38.917090,563084,-1645,671,-880,-1479,-305,-127,256,400,-20
375,1,2022-09-30T19:56:38.924788,563091,-1645,671,-880,-1479,-305,-127,256,400,-20
376,1,2022-09-30T19:56:38.931758,563098,-1645,671,-880,-1479,-305,-127,256,400,-20
377,1,2022-09-30T19:56:38.937912,563104,-1643,670,-882,-1509,-288,-89,256,400,-20
378,1,2022-09-30T19:56:38.945068,563111,-1643,670,-882,-1509,-288,-89,256,400,-20
379,1,2022-09-30T19:56:38.952039,563119,-1643,670,-882,-1509,-288,-89,256,400,-20
380,1,2022-09-30T19:56:38.958096,563125,-1639,665,-887,-1535,-297,-48,256,400,-20
381,1,2022-09-30T19:56:38.967646,563134,-1639,665,-887,-1535,-297,-48,256,400,-20
382,1,2022-09-30T19:56:38.974839,563141,-1639,665,-887,-1535,-297,-48,256,400,-20
383,1,2022-09-30T19:56:38.981916,563148,-1639,662,-883,-1530,-300,-37,256,400,-20
384,1,2022-09-30T19:56:38.989105,563155,-1639,662,-883,-1530,-300,-37,256,400,-20
385,1,2022-09-30T19:56:38.996430,563163,-1639,662,-883,-1530,-300,-37,256,400,-20
386,1,2022-09-30T19:56:39.002533,563169,-1644,664,-891,-1509,-305,-42,256,400,-20
387,1,2022-09-30T19:56:39.009711,563176,-1644,664,-891,-1509,-305,-42,256,400,-20
388,1,2022-09-30T19:56:39.017097,563183,-1642,670,-890,-1495,-326,-28,256,400,-20
389,1,2022-09-30T19:56:39.026103,563191,-1642,670,-890,-1495,-326,-28,256,400,-20
390,1,2022-09-30T19:56:39.034116,563200,-1642,670,-890,-1495,-326,-28,256,400,-20
391,1,2022-09-30T19:56:39.042173,563208,-1643,674,-886,-1524,-343,3,261,413,-11
392,1,2022-09-30T19:56:39.048980,563216,-1643,674,-886,-1524,-343,3,261,413,-11
393,1,2022-09-30T19:56:39.056076,563223,-1643,674,-886,-1524,-343,3,261,413,-11
394,1,2022-09-30T19:56:39.061580,563228,-1636,671,-884,-1558,-388,27,261,413,-11
395,1,2022-09-30T19:56:39.069093,563236,-1636,671,-884,-1558,-388,27,261,413,-11
396,1,2022-09-30T19:56:39.076262,563244,-1637,668,-884,-1584,-389,7,261,413,-11
397,1,2022-09-30T19:56:39.087785,563255,-1637,668,-884,-1584,-389,7,261,413,-11
398,1,2022-09-30T19:56:39.097531,563265,-1640,670,-883,-1574,-379,-65,261,413,-11
399,1,2022-09-30T19:56:39.107747,563274,-1640,670,-883,-1574,-379,-65,261,413,-11
400,1,2022-09-30T19:56:39.117450,563284,-1645,672,-884,-1563,-364,-133,261,413,-11
401,1,2022-09-30T19:56:39.128042,563295,-1645,672,-884,-1563,-364,-133,261,413,-11
402,1,2022-09-30T19:56:39.136601,563303,-1645,666,-882,-1562,-359,-152,261,413,-11
403,1,2022-09-30T19:56:39.145137,563311,-1645,666,-882,-1562,-359,-152,261,413,-11
404,1,2022-09-30T19:56:39.155840,563321,-1645,666,-882,-1562,-359,-152,261,413,-11
405,1,2022-09-30T19:56:39.165190,563331,-1636,663,-874,-1540,-379,-135,261,413,-11
406,1,2022-09-30T19:56:39.185113,563342,-1636,663,-874,-1540,-379,-135,261,413,-11
407,1,2022-09-30T19:56:39.193411,563360,-1628,659,-878,-1497,-345,-99,259,397,-5
408,1,2022-09-30T19:56:39.205103,563372,-1636,660,-885,-1446,-265,-99,259,397,-5
409,1,2022-09-30T19:56:39.215205,563382,-1636,660,-885,-1446,-265,-99,259,397,-5
410,1,2022-09-30T19:56:39.220958,563388,-1649,662,-891,-1399,-245,-105,259,397,-5
411,1,2022-09-30T19:56:39.229788,563396,-1649,662,-891,-1399,-245,-105,259,397,-5
412,1,2022-09-30T19:56:39.236297,563403,-1650,668,-890,-1394,-305,-111,259,397,-5
413,1,2022-09-30T19:56:39.241900,563408,-1650,668,-890,-1394,-305,-111,259,397,-5
414,1,2022-09-30T19:56:39.247474,563415,-1650,668,-890,-1394,-305,-111,259,397,-5
415,1,2022-09-30T19:56:39.253831,563421,-1650,668,-890,-1394,-305,-111,259,397,-5
416,1,2022-09-30T19:56:39.260619,563428,-1649,676,-887,-1435,-380,-121,259,397,-5
417,1,2022-09-30T19:56:39.265940,563433,-1649,676,-887,-1435,-380,-121,259,397,-5
418,1,2022-09-30T19:56:39.272359,563439,-1649,676,-887,-1435,-380,-121,259,397,-5
419,1,2022-09-30T19:56:39.278121,563445,-1648,677,-876,-1514,-440,-99,259,397,-5
420,1,2022-09-30T19:56:39.284848,563451,-1648,677,-876,-1514,-440,-99,259,397,-5
421,1,2022-09-30T19:56:39.293919,563461,-1648,677,-876,-1514,-440,-99,259,397,-5
422,1,2022-09-30T19:56:39.301366,563469,-1625,666,-876,-1598,-450,-50,255,405,-11
423,1,2022-09-30T19:56:39.308053,563475,-1625,666,-876,-1598,-450,-50,255,405,-11
424,1,2022-09-30T19:56:39.316379,563482,-1625,666,-876,-1598,-450,-50,255,405,-11
425,1,2022-09-30T19:56:39.321702,563489,-1633,657,-876,-1623,-339,-71,255,405,-11
426,1,2022-09-30T19:56:39.326970,563494,-1633,657,-876,-1623,-339,-71,255,405,-11
427,1,2022-09-30T19:56:39.335522,563503,-1633,657,-876,-1623,-339,-71,255,405,-11
428,1,2022-09-30T19:56:39.343699,563511,-1643,653,-882,-1583,-261,-139,255,405,-11
429,1,2022-09-30T19:56:39.352574,563519,-1643,653,-882,-1583,-261,-139,255,405,-11
430,1,2022-09-30T19:56:39.361152,563528,-1646,657,-884,-1542,-313,-181,255,405,-11
431,1,2022-09-30T19:56:39.369598,563536,-1646,657,-884,-1542,-313,-181,255,405,-11
432,1,2022-09-30T19:56:39.376154,563544,-1649,661,-882,-1516,-382,-172,255,405,-11
433,1,2022-09-30T19:56:39.383321,563549,-1649,661,-882,-1516,-382,-172,255,405,-11
434,1,2022-09-30T19:56:39.389196,563556,-1649,661,-882,-1516,-382,-172,255,405,-11
435,1,2022-09-30T19:56:39.398283,563562,-1649,661,-882,-1516,-382,-172,255,405,-11
436,1,2022-09-30T19:56:39.409856,563577,-1639,658,-886,-1521,-415,-125,255,405,-11
437,1,2022-09-30T19:56:39.420267,563587,-1640,663,-873,-1558,-399,-82,260,404,-12
438,1,2022-09-30T19:56:39.430925,563598,-1640,663,-873,-1558,-399,-82,260,404,-12
439,1,2022-09-30T19:56:39.437926,563605,-1643,666,-871,-1619,-368,-46,260,404,-12
440,1,2022-09-30T19:56:39.444434,563610,-1643,666,-871,-1619,-368,-46,260,404,-12
441,1,2022-09-30T19:56:39.451122,563618,-1643,666,-871,-1619,-368,-46,260,404,-12
442,1,2022-09-30T19:56:39.456579,563623,-1637,662,-874,-1667,-360,-2,260,404,-12
443,1,2022-09-30T19:56:39.463924,563631,-1637,662,-874,-1667,-360,-2,260,404,-12
444,1,2022-09-30T19:56:39.470291,563638,-1637,662,-874,-1667,-360,-2,260,404,-12
445,1,2022-09-30T19:56:39.475520,563643,-1637,662,-874,-1667,-360,-2,260,404,-12
446,1,2022-09-30T19:56:39.481225,563648,-1633,654,-876,-1651,-337,20,260,404,-12
447,1,2022-09-30T19:56:39.487254,563654,-1633,654,-876,-1651,-337,20,260,404,-12
448,1,2022-09-30T19:56:39.494380,563661,-1633,654,-876,-1651,-337,20,260,404,-12
449,1,2022-09-30T19:56:39.499698,563666,-1631,658,-876,-1573,-301,-5,260,404,-12
450,1,2022-09-30T19:56:39.507016,563674,-1631,658,-876,-1573,-301,-5,260,404,-12
451,1,2022-09-30T19:56:39.515272,563683,-1631,658,-876,-1573,-301,-5,260,404,-12
452,1,2022-09-30T19:56:39.521740,563689,-1646,669,-882,-1507,-270,-50,260,404,-12
453,1,2022-09-30T19:56:39.528369,563696,-1646,669,-882,-1507,-270,-50,260,404,-12
454,1,2022-09-30T19:56:39.535818,563702,-1646,669,-882,-1507,-270,-50,260,404,-12
455,1,2022-09-30T19:56:39.541398,563708,-1641,676,-882,-1493,-291,-33,255,405,-17
456,1,2022-09-30T19:56:39.547992,563716,-1641,676,-882,-1493,-291,-33,255,405,-17
457,1,2022-09-30T19:56:39.554536,563722,-1641,676,-882,-1493,-291,-33,255,405,-17
458,1,2022-09-30T19:56:39.560000,563727,-1640,674,-877,-1511,-314,5,255,405,-17
459,1,2022-09-30T19:56:39.566357,563734,-1640,674,-877,-1511,-314,5,255,405,-17
460,1,2022-09-30T19:56:39.572738,563740,-1640,674,-877,-1511,-314,5,255,405,-17
461,1,2022-09-30T19:56:39.578237,563745,-1642,665,-885,-1545,-312,-25,255,405,-17
462,1,2022-09-30T19:56:39.585547,563752,-1642,665,-885,-1545,-312,-25,255,405,-17
463,1,2022-09-30T19:56:39.592167,563760,-1642,665,-885,-1545,-312,-25,255,405,-17
464,1,2022-09-30T19:56:39.596967,563765,-1647,665,-885,-1571,-327,-92,255,405,-17
465,1,2022-09-30T19:56:39.604116,563771,-1647,665,-885,-1571,-327,-92,255,405,-17
466,1,2022-09-30T19:56:39.611654,563778,-1647,665,-885,-1571,-327,-92,255,405,-17
467,1,2022-09-30T19:56:39.617781,563784,-1640,669,-884,-1603,-356,-135,255,405,-17
468,1,2022-09-30T19:56:39.627334,563793,-1640,669,-884,-1603,-356,-135,255,405,-17
469,1,2022-09-30T19:56:39.637107,563802,-1640,669,-884,-1603,-356,-135,255,405,-17
470,1,2022-09-30T19:56:39.643551,563811,-1639,663,-883,-1617,-371,-126,255,405,-17
471,1,2022-09-30T19:56:39.652620,563820,-1639,663,-883,-1617,-371,-126,255,405,-17
472,1,2022-09-30T19:56:39.658293,563825,-1644,664,-875,-1621,-355,-100,255,405,-17
473,1,2022-09-30T19:56:39.666192,563833,-1644,664,-875,-1621,-355,-100,255,405,-17
474,1,2022-09-30T19:56:39.671332,563838,-1644,664,-875,-1621,-355,-100,255,405,-17
475,1,2022-09-30T19:56:39.676461,563844,-1640,661,-877,-1613,-355,-58,4,405,-17
476,1,2022-09-30T19:56:39.683764,563850,-1640,661,-877,-1613,-355,-58,260,400,-16
477,1,2022-09-30T19:56:39.688671,563856,-1640,661,-877,-1613,-355,-58,260,400,-16
478,1,2022-09-30T19:56:39.694995,563862,-1640,661,-877,-1613,-355,-58,260,400,-16
479,1,2022-09-30T19:56:39.700562,563867,-1635,658,-882,-1582,-341,-26,260,400,-16
480,1,2022-09-30T19:56:39.706106,563873,-1635,658,-882,-1582,-341,-26,260,400,-16
481,1,2022-09-30T19:56:39.712721,563879,-1635,658,-882,-1582,-341,-26,260,400,-16
482,1,2022-09-30T19:56:39.718059,563886,-1645,659,-882,-1550,-314,-27,260,400,-16
483,1,2022-09-30T19:56:39.724441,563892,-1645,659,-882,-1550,-314,-27,260,400,-16
484,1,2022-09-30T19:56:39.731300,563898,-1645,659,-882,-1550,-314,-27,260,400,-16
485,1,2022-09-30T19:56:39.736460,563904,-1645,665,-888,-1530,-337,-23,260,400,-16
486,1,2022-09-30T19:56:39.743056,563910,-1645,665,-888,-1530,-337,-23,260,400,-16
487,1,2022-09-30T19:56:39.748346,563916,-1645,665,-888,-1530,-337,-23,260,400,-16
488,1,2022-09-30T19:56:39.755315,563922,-1645,665,-888,-1530,-337,-23,260,400,-16
489,1,2022-09-30T19:56:39.760980,563929,-1639,665,-883,-1519,-361,-28,260,400,-16
490,1,2022-09-30T19:56:39.767470,563935,-1639,665,-883,-1519,-361,-28,260,400,-16
491,1,2022-09-30T19:56:39.774216,563942,-1639,665,-883,-1519,-361,-28,260,400,-16
492,1,2022-09-30T19:56:39.779740,563947,-1639,669,-881,-1536,-368,-18,260,400,-16
493,1,2022-09-30T19:56:39.786203,563953,-1639,669,-881,-1536,-368,-18,260,400,-16
494,1,2022-09-30T19:56:39.792700,563959,-1639,669,-881,-1536,-368,-18,260,400,-16
495,1,2022-09-30T19:56:39.797689,563965,-1636,670,-880,-1544,-374,-5,261,413,-15
496,1,2022-09-30T19:56:39.807250,563974,-1636,670,-880,-1544,-374,-5,261,413,-15
497,1,2022-09-30T19:56:39.813022,563980,-1636,670,-880,-1544,-374,-5,261,413,-15
498,1,2022-09-30T19:56:39.818733,563986,-1641,666,-879,-1553,-376,-20,261,413,-15
499,1,2022-09-30T19:56:39.824257,563991,-1641,666,-879,-1553,-376,-20,261,413,-15
500,1,2022-09-30T19:56:39.832964,563999,-1641,666,-879,-1553,-376,-20,261,413,-15
501,1,2022-09-30T19:56:39.840351,564007,-1640,673,-874,-1541,-390,-72,261,413,-15
502,1,2022-09-30T19:56:39.847764,564015,-1640,673,-874,-1541,-390,-72,261,413,-15
503,1,2022-09-30T19:56:39.856590,564023,-1640,673,-874,-1541,-390,-72,261,413,-15
504,1,2022-09-30T19:56:39.862514,564030,-1636,667,-883,-1552,-385,-112,261,413,-15
505,1,2022-09-30T19:56:39.868021,564035,-1636,667,-883,-1552,-385,-112,261,413,-15
506,1,2022-09-30T19:56:39.874719,564042,-1636,667,-883,-1552,-385,-112,261,413,-15
507,1,2022-09-30T19:56:39.881065,564047,-1635,664,-879,-1550,-373,-145,261,413,-15
508,1,2022-09-30T19:56:39.888270,564056,-1635,664,-879,-1550,-373,-145,261,413,-15
509,1,2022-09-30T19:56:39.894941,564062,-1635,664,-879,-1550,-373,-145,261,413,-15
510,1,2022-09-30T19:56:39.900619,564068,-1633,658,-881,-1523,-334,-143,261,413,-15
511,1,2022-09-30T19:56:39.907489,564074,-1633,658,-881,-1523,-334,-143,261,413,-15
512,1,2022-09-30T19:56:39.913682,564081,-1633,658,-881,-1523,-334,-143,261,413,-15
513,1,2022-09-30T19:56:39.919936,564087,-1639,657,-878,-1469,-279,-133,263,409,-17
514,1,2022-09-30T19:56:39.926095,564093,-1639,657,-878,-1469,-279,-133,263,409,-17
515,1,2022-09-30T19:56:39.932722,564100,-1639,657,-878,-1469,-279,-133,263,409,-17
516,1,2022-09-30T19:56:39.938545,564106,-1650,659,-884,-1419,-259,-109,263,409,-17
517,1,2022-09-30T19:56:39.945751,564113,-1650,659,-884,-1419,-259,-109,263,409,-17
518,1,2022-09-30T19:56:39.952337,564120,-1650,659,-884,-1419,-259,-109,263,409,-17
519,1,2022-09-30T19:56:39.958217,564125,-1648,662,-877,-1389,-299,-85,263,409,-17
520,1,2022-09-30T19:56:39.965045,564132,-1648,662,-877,-1389,-299,-85,263,409,-17
521,1,2022-09-30T19:56:39.971893,564140,-1648,662,-877,-1389,-299,-85,263,409,-17
522,1,2022-09-30T19:56:39.977187,564145,-1644,668,-882,-1395,-362,-70,263,409,-17
523,1,2022-09-30T19:56:39.988345,564155,-1644,668,-882,-1395,-362,-70,263,409,-17
524,1,2022-09-30T19:56:39.994916,564162,-1644,668,-882,-1395,-362,-70,263,409,-17
525,1,2022-09-30T19:56:40.001181,564167,-1648,680,-884,-1457,-379,-63,263,409,-17
526,1,2022-09-30T19:56:40.008839,564175,-1648,680,-884,-1457,-379,-63,263,409,-17
527,1,2022-09-30T19:56:40.015328,564183,-1648,680,-884,-1457,-379,-63,263,409,-17
528,1,2022-09-30T19:56:40.020610,564188,-1645,676,-882,-1544,-378,-17,263,409,-17
529,1,2022-09-30T19:56:40.026881,564195,-1645,676,-882,-1544,-378,-17,263,409,-17
530,1,2022-09-30T19:56:40.033239,564201,-1645,676,-882,-1544,-378,-17,263,409,-17
531,1,2022-09-30T19:56:40.039746,564207,-1633,664,-873,-1608,-353,38,259,409,-21
532,1,2022-09-30T19:56:40.045025,564212,-1633,664,-873,-1608,-353,38,259,409,-21
533,1,2022-09-30T19:56:40.051174,564218,-1633,664,-873,-1608,-353,38,259,409,-21
534,1,2022-09-30T19:56:40.057029,564225,-1641,659,-877,-1592,-282,11,259,409,-21
535,1,2022-09-30T19:56:40.065240,564232,-1641,659,-877,-1592,-282,11,259,409,-21
536,1,2022-09-30T19:56:40.072330,564239,-1641,659,-877,-1592,-282,11,259,409,-21
537,1,2022-09-30T19:56:40.078573,564245,-1643,661,-876,-1547,-312,-25,259,409,-21
538,1,2022-09-30T19:56:40.088420,564256,-1643,661,-876,-1547,-312,-25,259,409,-21
539,1,2022-09-30T19:56:40.095082,564262,-1643,661,-876,-1547,-312,-25,259,409,-21
540,1,2022-09-30T19:56:40.100860,564268,-1641,659,-884,-1488,-370,-30,259,409,-21
541,1,2022-09-30T19:56:40.108099,564275,-1641,659,-884,-1488,-370,-30,259,409,-21
542,1,2022-09-30T19:56:40.115402,564282,-1641,659,-884,-1488,-370,-30,259,409,-21
543,1,2022-09-30T19:56:40.120522,564288,-1635,659,-878,-1424,-406,-20,259,409,-21
544,1,2022-09-30T19:56:40.126994,564294,-1635,659,-878,-1424,-406,-20,259,409,-21
545,1,2022-09-30T19:56:40.133966,564300,-1635,659,-878,-1424,-406,-20,259,409,-21
546,1,2022-09-30T19:56:40.139609,564306,-1640,665,-877,-1386,-381,-41,259,409,-21
547,1,2022-09-30T19:56:40.146831,564314,-1640,665,-877,-1386,-381,-41,259,409,-21
548,1,2022-09-30T19:56:40.152946,564321,-1640,665,-877,-1386,-381,-41,259,409,-21
549,1,2022-09-30T19:56:40.158448,564326,-1641,667,-877,-1389,-368,-71,259,409,-21
550,1,2022-09-30T19:56:40.164963,564332,-1641,667,-877,-1389,-368,-71,259,409,-21
551,1,2022-09-30T19:56:40.171569,564339,-1641,667,-877,-1389,-368,-71,259,409,-21
552,1,2022-09-30T19:56:40.177244,564344,-1637,668,-874,-1414,-354,-87,258,406,-18
553,1,2022-09-30T19:56:40.186685,564354,-1637,668,-874,-1414,-354,-87,258,406,-18
554,1,2022-09-30T19:56:40.194953,564363,-1637,668,-874,-1414,-354,-87,258,406,-18
555,1,2022-09-30T19:56:40.201720,564369,-1636,659,-877,-1406,-326,-71,258,406,-18
556,1,2022-09-30T19:56:40.208749,564375,-1636,659,-877,-1406,-326,-71,258,406,-18
557,1,2022-09-30T19:56:40.215781,564383,-1636,659,-877,-1406,-326,-71,258,406,-18
558,1,2022-09-30T19:56:40.221249,564388,-1637,663,-880,-1381,-296,-38,258,406,-18
559,1,2022-09-30T19:56:40.227096,564393,-1637,663,-880,-1381,-296,-38,258,406,-18
560,1,2022-09-30T19:56:40.232962,564400,-1637,663,-880,-1381,-296,-38,258,406,-18
561,1,2022-09-30T19:56:40.239133,564406,-1640,670,-879,-1363,-265,-13,258,406,-18
562,1,2022-09-30T19:56:40.244572,564412,-1640,670,-879,-1363,-265,-13,258,406,-18
563,1,2022-09-30T19:56:40.251080,564419,-1640,670,-879,-1363,-265,-13,258,406,-18
564,1,2022-09-30T19:56:40.257495,564423,-1640,670,-879,-1363,-265,-13,258,406,-18
565,1,2022-09-30T19:56:40.263043,564430,-1645,680,-887,-1381,-275,-2,258,406,-18
566,1,2022-09-30T19:56:40.268516,564435,-1645,680,-887,-1381,-275,-2,258,406,-18
567,1,2022-09-30T19:56:40.275431,564443,-1645,680,-887,-1381,-275,-2,258,406,-18
568,1,2022-09-30T19:56:40.282595,564448,-1639,676,-885,-1447,-324,8,258,406,-18
569,1,2022-09-30T19:56:40.289845,564457,-1639,676,-885,-1447,-324,8,258,406,-18
570,1,2022-09-30T19:56:40.296733,564464,-1640,673,-887,-1498,-296,-32,263,407,-18
571,1,2022-09-30T19:56:40.303212,564470,-1640,673,-887,-1498,-296,-32,263,407,-17
572,1,2022-09-30T19:56:40.308909,564475,-1640,673,-887,-1498,-296,-32,263,407,-17
573,1,2022-09-30T19:56:40.316194,564484,-1640,673,-887,-1498,-296,-32,263,407,-17
574,1,2022-09-30T19:56:40.321344,564489,-1648,669,-882,-1534,-289,-100,263,407,-17
575,1,2022-09-30T19:56:40.326359,564494,-1648,669,-882,-1534,-289,-100,263,407,-17
576,1,2022-09-30T19:56:40.333345,564500,-1648,669,-882,-1534,-289,-100,263,407,-17
577,1,2022-09-30T19:56:40.338703,564506,-1645,672,-881,-1532,-333,-117,263,407,-17
578,1,2022-09-30T19:56:40.345160,564512,-1645,672,-881,-1532,-333,-117,263,407,-17
579,1,2022-09-30T19:56:40.355026,564521,-1645,672,-881,-1532,-333,-117,263,407,-17
580,1,2022-09-30T19:56:40.364243,564529,-1644,670,-879,-1540,-397,-91,263,407,-17
581,1,2022-09-30T19:56:40.371492,564539,-1644,670,-879,-1540,-397,-91,263,407,-17
582,1,2022-09-30T19:56:40.379021,564546,-1646,664,-877,-1527,-447,-44,263,407,-17
583,1,2022-09-30T19:56:40.388233,564555,-1646,664,-877,-1527,-447,-44,263,407,-17
584,1,2022-09-30T19:56:40.394809,564562,-1646,664,-877,-1527,-447,-44,263,407,-17
585,1,2022-09-30T19:56:40.400887,564568,-1640,664,-870,-1486,-459,-32,263,407,-17
586,1,2022-09-30T19:56:40.410046,564577,-1640,664,-870,-1486,-459,-32,263,407,-17
587,1,2022-09-30T19:56:40.419933,564587,-1631,661,-867,-1393,-377,35,265,401,-17
588,1,2022-09-30T19:56:40.429219,564594,-1631,661,-867,-1393,-377,35,265,401,-17
589,1,2022-09-30T19:56:40.438726,564605,-1632,660,-869,-1370,-335,26,265,401,-17
590,1,2022-09-30T19:56:40.446179,564614,-1632,660,-869,-1370,-335,26,265,401,-17
591,1,2022-09-30T19:56:40.453729,564621,-1632,660,-869,-1370,-335,26,265,401,-17
592,1,2022-09-30T19:56:40.461103,564628,-1638,663,-876,-1325,-291,-2,265,401,-17
593,1,2022-09-30T19:56:40.468184,564635,-1638,663,-876,-1325,-291,-2,265,401,-17
594,1,2022-09-30T19:56:40.474900,564642,-1638,663,-876,-1325,-291,-2,265,401,-17
595,1,2022-09-30T19:56:40.481748,564647,-1645,662,-881,-1286,-256,-24,265,401,-17
596,1,2022-09-30T19:56:40.489264,564657,-1645,662,-881,-1286,-256,-24,265,401,-17
597,1,2022-09-30T19:56:40.495681,564663,-1645,662,-881,-1286,-256,-24,265,401,-17
598,1,2022-09-30T19:56:40.500868,564668,-1644,662,-884,-1270,-273,-9,265,401,-17
599,1,2022-09-30T19:56:40.507840,564675,-1644,662,-884,-1270,-273,-9,265,401,-17
600,1,2022-09-30T19:56:40.515227,564682,-1644,662,-884,-1270,-273,-9,265,401,-17
601,1,2022-09-30T19:56:40.521444,564687,-1637,672,-884,-1288,-276,25,265,401,-17
602,1,2022-09-30T19:56:40.527878,564696,-1637,672,-884,-1288,-276,25,265,401,-17
603,1,2022-09-30T19:56:40.534865,564702,-1637,672,-884,-1288,-276,25,265,401,-17
604,1,2022-09-30T19:56:40.540249,564708,-1640,672,-885,-1321,-254,93,258,412,-18
605,1,2022-09-30T19:56:40.546608,564714,-1640,672,-885,-1321,-254,93,258,412,-18
606,1,2022-09-30T19:56:40.553749,564721,-1640,672,-885,-1321,-254,93,258,412,-18
607,1,2022-09-30T19:56:40.560223,564727,-1642,678,-886,-1368,-239,123,258,412,-18
608,1,2022-09-30T19:56:40.568546,564736,-1642,678,-886,-1368,-239,123,258,412,-18
609,1,2022-09-30T19:56:40.575333,564743,-1642,678,-886,-1368,-239,123,258,412,-18
610,1,2022-09-30T19:56:40.581200,564748,-1638,678,-889,-1430,-243,114,258,412,-18
611,1,2022-09-30T19:56:40.586868,564754,-1638,678,-889,-1430,-243,114,258,412,-18
612,1,2022-09-30T19:56:40.594335,564761,-1638,678,-889,-1430,-243,114,258,412,-18
613,1,2022-09-30T19:56:40.599772,564767,-1638,674,-888,-1470,-268,85,258,412,-18
614,1,2022-09-30T19:56:40.605277,564772,-1638,674,-888,-1470,-268,85,258,412,-18
615,1,2022-09-30T19:56:40.612119,564780,-1638,674,-888,-1470,-268,85,258,412,-18
616,1,2022-09-30T19:56:40.617578,564785,-1645,666,-886,-1467,-277,4,258,412,-18
617,1,2022-09-30T19:56:40.627543,564795,-1645,666,-886,-1467,-277,4,258,412,-18
618,1,2022-09-30T19:56:40.635614,564803,-1645,666,-886,-1467,-277,4,258,412,-18
619,1,2022-09-30T19:56:40.644967,564810,-1639,668,-890,-1440,-329,-55,258,412,-18
620,1,2022-09-30T19:56:40.651853,564819,-1639,668,-890,-1440,-329,-55,258,412,-18
621,1,2022-09-30T19:56:40.660918,564828,-1638,668,-888,-1394,-357,-86,258,412,-18
622,1,2022-09-30T19:56:40.671666,564838,-1638,668,-888,-1394,-357,-86,258,412,-18
623,1,2022-09-30T19:56:40.678735,564846,-1644,669,-880,-1359,-369,-75,253,405,-17
624,1,2022-09-30T19:56:40.693234,564859,-1644,669,-880,-1359,-369,-75,253,405,-17
625,1,2022-09-30T19:56:40.701096,564868,-1639,669,-880,-1352,-403,-14,253,405,-17
626,1,2022-09-30T19:56:40.708730,564876,-1639,669,-880,-1352,-403,-14,253,405,-17
627,1,2022-09-30T19:56:40.714288,564881,-1639,669,-880,-1352,-403,-14,253,405,-17
628,1,2022-09-30T19:56:40.720364,564887,-1634,672,-877,-1317,-396,-35,253,405,-17
629,1,2022-09-30T19:56:40.727642,564895,-1634,672,-877,-1317,-396,-35,253,405,-17
630,1,2022-09-30T19:56:40.735702,564902,-1634,672,-877,-1317,-396,-35,253,405,-17
631,1,2022-09-30T19:56:40.741800,564909,-1638,681,-880,-1305,-399,-40,253,405,-17
632,1,2022-09-30T19:56:40.748964,564917,-1638,681,-880,-1305,-399,-40,253,405,-17
633,1,2022-09-30T19:56:40.756364,564924,-1638,681,-880,-1305,-399,-40,253,405,-17
634,1,2022-09-30T19:56:40.763395,564930,-1641,681,-881,-1329,-365,-25,253,405,-17
635,1,2022-09-30T19:56:40.771749,564939,-1641,681,-881,-1329,-365,-25,253,405,-17
636,1,2022-09-30T19:56:40.779516,564946,-1622,674,-883,-1351,-309,10,253,405,-17
637,1,2022-09-30T19:56:40.790361,564957,-1622,674,-883,-1351,-309,10,253,405,-17
638,1,2022-09-30T19:56:40.799530,564966,-1637,672,-881,-1348,-175,-53,256,402,-18
639,1,2022-09-30T19:56:40.806164,564973,-1637,672,-881,-1348,-175,-53,256,402,-18
640,1,2022-09-30T19:56:40.815850,564982,-1637,672,-881,-1348,-175,-53,256,402,-18
641,1,2022-09-30T19:56:40.823117,564989,-1648,671,-886,-1327,-182,-133,256,402,-18
642,1,2022-09-30T19:56:40.831797,564998,-1648,671,-886,-1327,-182,-133,256,402,-18
643,1,2022-09-30T19:56:40.837832,565005,-1649,663,-886,-1289,-281,-162,256,402,-18
644,1,2022-09-30T19:56:40.844562,565011,-1649,663,-886,-1289,-281,-162,256,402,-18
645,1,2022-09-30T19:56:40.851051,565018,-1649,663,-886,-1289,-281,-162,256,402,-18
646,1,2022-09-30T19:56:40.859447,565026,-1644,668,-891,-1260,-359,-184,256,402,-18
647,1,2022-09-30T19:56:40.867485,565033,-1644,668,-891,-1260,-359,-184,256,402,-18
648,1,2022-09-30T19:56:40.873028,565040,-1644,668,-891,-1260,-359,-184,256,402,-18
649,1,2022-09-30T19:56:40.879546,565046,-1644,668,-886,-1262,-395,-183,256,402,-18
650,1,2022-09-30T19:56:40.889266,565056,-1644,668,-886,-1262,-395,-183,256,402,-18
651,1,2022-09-30T19:56:40.899060,565066,-1639,668,-885,-1280,-427,-135,256,402,-18
652,1,2022-09-30T19:56:40.909190,565075,-1639,668,-885,-1280,-427,-135,256,402,-18
653,1,2022-09-30T19:56:40.918128,565085,-1634,665,-878,-1324,-411,-79,258,402,-20
654,1,2022-09-30T19:56:40.927120,565093,-1634,665,-878,-1324,-411,-79,258,402,-20
655,1,2022-09-30T19:56:40.936712,565103,-1634,665,-878,-1324,-411,-79,258,402,-20
656,1,2022-09-30T19:56:40.944183,565109,-1637,662,-879,-1350,-364,-24,258,402,-20
657,1,2022-09-30T19:56:40.952693,565118,-1637,662,-879,-1350,-364,-24,258,402,-20
658,1,2022-09-30T19:56:40.961106,565128,-1638,666,-882,-1325,-334,16,258,402,-20
659,1,2022-09-30T19:56:40.968242,565136,-1638,666,-882,-1325,-334,16,258,402,-20
660,1,2022-09-30T19:56:40.976189,565143,-1638,666,-882,-1325,-334,16,258,402,-20
661,1,2022-09-30T19:56:40.982594,565149,-1640,676,-883,-1321,-290,0,258,402,-20
662,1,2022-09-30T19:56:40.989426,565157,-1640,676,-883,-1321,-290,0,258,402,-20
663,1,2022-09-30T19:56:40.995755,565164,-1640,676,-883,-1321,-290,0,258,402,-20
664,1,2022-09-30T19:56:41.001139,565169,-1646,674,-883,-1342,-278,-26,258,402,-20
665,1,2022-09-30T19:56:41.007549,565175,-1646,674,-883,-1342,-278,-26,258,402,-20
666,1,2022-09-30T19:56:41.015766,565183,-1646,674,-883,-1342,-278,-26,258,402,-20
667,1,2022-09-30T19:56:41.023302,565191,-1646,674,-883,-1342,-278,-26,258,402,-20
668,1,2022-09-30T19:56:41.028548,565196,-1646,674,-883,-1342,-278,-26,258,402,-20
669,1,2022-09-30T19:56:41.035803,565202,-1646,674,-883,-1342,-278,-26,258,402,-20
670,1,2022-09-30T19:56:41.041335,565209,-1644,674,-882,-1400,-277,-40,257,409,-19
671,1,2022-09-30T19:56:41.047484,565215,-1644,674,-882,-1400,-277,-40,257,409,-19
672,1,2022-09-30T19:56:41.054423,565222,-1644,674,-882,-1400,-277,-40,257,409,-19
673,1,2022-09-30T19:56:41.060401,565227,-1648,667,-882,-1420,-289,-64,257,409,-19
674,1,2022-09-30T19:56:41.067560,565235,-1648,667,-882,-1420,-289,-64,257,409,-19
675,1,2022-09-30T19:56:41.076332,565242,-1648,667,-882,-1420,-289,-64,257,409,-19
676,1,2022-09-30T19:56:41.083324,565250,-1649,668,-882,-1371,-350,-88,257,409,-19
677,1,2022-09-30T19:56:41.091796,565258,-1649,668,-882,-1371,-350,-88,257,409,-19
678,1,2022-09-30T19:56:41.100007,565266,-1641,666,-881,-1355,-410,-88,257,409,-19
679,1,2022-09-30T19:56:41.109245,565276,-1641,666,-881,-1355,-410,-88,257,409,-19
680,1,2022-09-30T19:56:41.117813,565284,-1641,666,-881,-1355,-410,-88,257,409,-19
681,1,2022-09-30T19:56:41.126784,565293,-1635,666,-881,-1342,-393,-69,257,409,-19
682,1,2022-09-30T19:56:41.136675,565303,-1635,666,-881,-1342,-393,-69,257,409,-19
683,1,2022-09-30T19:56:41.142380,565310,-1630,670,-876,-1326,-339,-35,257,409,-19
684,1,2022-09-30T19:56:41.150265,565317,-1630,670,-876,-1326,-339,-35,257,409,-19
685,1,2022-09-30T19:56:41.157993,565324,-1639,671,-880,-1321,-283,-4,250,410,-14
686,1,2022-09-30T19:56:41.168254,565335,-1639,671,-880,-1321,-283,-4,250,410,-14
687,1,2022-09-30T19:56:41.176482,565343,-1639,671,-880,-1321,-283,-4,250,410,-14
688,1,2022-09-30T19:56:41.183406,565350,-1641,668,-876,-1336,-285,0,250,410,-14
689,1,2022-09-30T19:56:41.192288,565359,-1641,668,-876,-1336,-285,0,250,410,-14
690,1,2022-09-30T19:56:41.200307,565367,-1643,669,-880,-1356,-268,-25,250,410,-14
691,1,2022-09-30T19:56:41.209031,565374,-1643,669,-880,-1356,-268,-25,250,410,-14
692,1,2022-09-30T19:56:41.216635,565384,-1643,669,-880,-1356,-268,-25,250,410,-14
693,1,2022-09-30T19:56:41.224771,565390,-1640,677,-880,-1387,-283,-39,250,410,-14
694,1,2022-09-30T19:56:41.232373,565399,-1640,677,-880,-1387,-283,-39,250,410,-14
695,1,2022-09-30T19:56:41.240041,565407,-1643,677,-882,-1441,-307,-12,250,410,-14
696,1,2022-09-30T19:56:41.248240,565414,-1643,677,-882,-1441,-307,-12,250,410,-14
697,1,2022-09-30T19:56:41.256290,565424,-1643,677,-882,-1441,-307,-12,250,410,-14
698,1,2022-09-30T19:56:41.264491,565431,-1640,670,-883,-1482,-352,10,250,410,-14
699,1,2022-09-30T19:56:41.272724,565440,-1640,670,-883,-1482,-352,10,250,410,-14
700,1,2022-09-30T19:56:41.280617,565447,-1636,669,-881,-1479,-387,-12,250,410,-14
701,1,2022-09-30T19:56:41.291364,565458,-1636,669,-881,-1479,-387,-12,250,410,-14
702,1,2022-09-30T19:56:41.297249,565465,-1639,666,-873,-1450,-393,-69,250,410,-14
703,1,2022-09-30T19:56:41.306617,565474,-1639,666,-873,-1450,-393,-69,263,405,-17
704,1,2022-09-30T19:56:41.314858,565482,-1639,666,-873,-1450,-393,-69,263,405,-17
705,1,2022-09-30T19:56:41.320924,565488,-1639,671,-882,-1415,-361,-116,263,405,-17
706,1,2022-09-30T19:56:41.331128,565497,-1639,671,-882,-1415,-361,-116,263,405,-17
707,1,2022-09-30T19:56:41.340090,565507,-1642,668,-875,-1380,-341,-109,263,405,-17
708,1,2022-09-30T19:56:41.348920,565516,-1642,668,-875,-1380,-341,-109,263,405,-17
709,1,2022-09-30T19:56:41.356136,565523,-1642,668,-875,-1380,-341,-109,263,405,-17
710,1,2022-09-30T19:56:41.363675,565530,-1636,666,-881,-1355,-333,-83,263,405,-17
711,1,2022-09-30T19:56:41.371306,565538,-1636,666,-881,-1355,-333,-83,263,405,-17
712,1,2022-09-30T19:56:41.380527,565548,-1628,664,-883,-1343,-315,-59,263,405,-17
713,1,2022-09-30T19:56:41.391657,565558,-1628,664,-883,-1343,-315,-59,263,405,-17
714,1,2022-09-30T19:56:41.398765,565566,-1643,667,-887,-1345,-244,-66,263,405,-17
715,1,2022-09-30T19:56:41.405085,565571,-1643,667,-887,-1345,-244,-66,263,405,-17
716,1,2022-09-30T19:56:41.411747,565578,-1643,667,-887,-1345,-244,-66,263,405,-17
717,1,2022-09-30T19:56:41.418764,565586,-1647,667,-893,-1353,-222,-58,261,409,-13
718,1,2022-09-30T19:56:41.427763,565595,-1647,667,-893,-1353,-222,-58,261,409,-13
719,1,2022-09-30T19:56:41.438962,565603,-1647,667,-893,-1353,-222,-58,261,409,-13
720,1,2022-09-30T19:56:41.447018,565613,-1646,672,-891,-1393,-269,-34,261,409,-13
721,1,2022-09-30T19:56:41.455757,565622,-1646,672,-891,-1393,-269,-34,261,409,-13
722,1,2022-09-30T19:56:41.462490,565628,-1647,676,-891,-1456,-326,-9,261,409,-13
723,1,2022-09-30T19:56:41.472768,565639,-1647,676,-891,-1456,-326,-9,261,409,-13
724,1,2022-09-30T19:56:41.481089,565648,-1643,672,-888,-1514,-381,23,261,409,-13
725,1,2022-09-30T19:56:41.491113,565658,-1643,672,-888,-1514,-381,23,261,409,-13
726,1,2022-09-30T19:56:41.499345,565666,-1626,669,-888,-1563,-404,41,261,409,-13
727,1,2022-09-30T19:56:41.507646,565673,-1626,669,-888,-1563,-404,41,261,409,-13
728,1,2022-09-30T19:56:41.515812,565683,-1626,669,-888,-1563,-404,41,261,409,-13
729,1,2022-09-30T19:56:41.523199,565689,-1636,664,-887,-1555,-331,-36,261,409,-13
730,1,2022-09-30T19:56:41.531013,565698,-1636,664,-887,-1555,-331,-36,261,409,-13
731,1,2022-09-30T19:56:41.539243,565705,-1655,672,-883,-1539,-297,-138,258,414,-16
732,1,2022-09-30T19:56:41.546076,565712,-1655,672,-883,-1539,-297,-138,258,414,-16
733,1,2022-09-30T19:56:41.552042,565719,-1655,672,-883,-1539,-297,-138,258,414,-16
734,1,2022-09-30T19:56:41.560776,565728,-1646,674,-882,-1544,-387,-147,258,414,-16
735,1,2022-09-30T19:56:41.566787,565734,-1646,674,-882,-1544,-387,-147,258,414,-16
736,1,2022-09-30T19:56:41.575696,565741,-1646,674,-882,-1544,-387,-147,258,414,-16
737,1,2022-09-30T19:56:41.582923,565749,-1637,669,-880,-1565,-448,-102,258,414,-16
738,1,2022-09-30T19:56:41.614118,565775,-1630,669,-875,-1584,-441,-64,258,414,-16
739,1,2022-09-30T19:56:41.627531,565794,-1638,670,-877,-1596,-391,-56,258,414,-16
740,1,2022-09-30T19:56:41.639236,565807,-1651,673,-877,-1610,-367,-60,258,414,-16
741,1,2022-09-30T19:56:41.649674,565817,-1651,673,-877,-1610,-367,-60,258,414,-16
742,1,2022-09-30T19:56:41.661920,565829,-1645,667,-870,-1621,-413,-56,256,412,-16
743,1,2022-09-30T19:56:41.669377,565836,-1645,667,-870,-1621,-413,-56,256,412,-16
744,1,2022-09-30T19:56:41.677489,565844,-1623,662,-869,-1566,-430,-56,256,412,-16
745,1,2022-09-30T19:56:41.686573,565854,-1623,662,-869,-1566,-430,-56,256,412,-16
746,1,2022-09-30T19:56:41.694818,565861,-1623,662,-869,-1566,-430,-56,256,412,-16
747,1,2022-09-30T19:56:41.701460,565868,-1622,668,-874,-1494,-327,-79,256,412,-16
748,1,2022-09-30T19:56:41.709277,565876,-1622,668,-874,-1494,-327,-79,256,412,-16
749,1,2022-09-30T19:56:41.716977,565884,-1622,668,-874,-1494,-327,-79,256,412,-16
750,1,2022-09-30T19:56:41.725941,565893,-1650,673,-881,-1444,-243,-96,256,412,-16
751,1,2022-09-30T19:56:41.734268,565901,-1650,673,-881,-1444,-243,-96,256,412,-16
752,1,2022-09-30T19:56:41.743374,565910,-1646,671,-878,-1452,-284,-82,256,412,-16
753,1,2022-09-30T19:56:41.753532,565920,-1646,671,-878,-1452,-284,-82,256,412,-16
754,1,2022-09-30T19:56:41.761796,565928,-1637,666,-891,-1464,-307,-63,256,412,-16
755,1,2022-09-30T19:56:41.769723,565937,-1637,666,-891,-1464,-307,-63,256,412,-16
756,1,2022-09-30T19:56:41.779024,565945,-1642,667,-890,-1466,-267,-104,256,412,-16
757,1,2022-09-30T19:56:41.791383,565958,-1642,667,-890,-1466,-267,-104,256,412,-16
758,1,2022-09-30T19:56:41.799909,565966,-1646,669,-881,-1470,-268,-129,261,411,-17
759,1,2022-09-30T19:56:41.807693,565975,-1646,669,-881,-1470,-268,-129,261,411,-17
760,1,2022-09-30T19:56:41.815994,565983,-1646,669,-881,-1470,-268,-129,261,411,-17
761,1,2022-09-30T19:56:41.823912,565991,-1636,673,-886,-1504,-307,-110,261,411,-17
762,1,2022-09-30T19:56:41.832925,565999,-1636,673,-886,-1504,-307,-110,261,411,-17
763,1,2022-09-30T19:56:41.841441,566008,-1641,672,-885,-1562,-316,-107,261,411,-17
764,1,2022-09-30T19:56:41.849023,566014,-1641,672,-885,-1562,-316,-107,261,411,-17
765,1,2022-09-30T19:56:41.857451,566025,-1641,672,-885,-1562,-316,-107,261,411,-17
766,1,2022-09-30T19:56:41.863798,566031,-1644,669,-886,-1625,-345,-116,261,411,-17
767,1,2022-09-30T19:56:41.871882,566039,-1644,669,-886,-1625,-345,-116,261,411,-17
768,1,2022-09-30T19:56:41.879790,566046,-1639,674,-886,-1696,-362,-80,261,411,-17
769,1,2022-09-30T19:56:41.889299,566056,-1639,674,-886,-1696,-362,-80,261,411,-17
770,1,2022-09-30T19:56:41.897327,566064,-1639,674,-886,-1696,-362,-80,261,411,-17
771,1,2022-09-30T19:56:41.903784,566070,-1640,665,-888,-1726,-350,-45,261,411,-17
772,1,2022-09-30T19:56:41.910386,566077,-1640,665,-888,-1726,-350,-45,261,411,-17
773,1,2022-09-30T19:56:41.918384,566085,-1649,663,-878,-1730,-342,-45,264,404,-16
774,1,2022-09-30T19:56:41.926082,566093,-1649,663,-878,-1730,-342,-45,264,404,-16
775,1,2022-09-30T19:56:41.931835,566098,-1649,663,-878,-1730,-342,-45,264,404,-16
776,1,2022-09-30T19:56:41.939597,566107,-1635,664,-880,-1701,-372,-69,264,404,-16
777,1,2022-09-30T19:56:41.946583,566114,-1635,664,-880,-1701,-372,-69,264,404,-16
778,1,2022-09-30T19:56:41.952740,566121,-1635,664,-880,-1701,-372,-69,264,404,-16
779,1,2022-09-30T19:56:41.958062,566125,-1639,666,-882,-1673,-366,-98,264,404,-16
780,1,2022-09-30T19:56:41.964609,566132,-1639,666,-882,-1673,-366,-98,264,404,-16
781,1,2022-09-30T19:56:41.969648,566137,-1639,666,-882,-1673,-366,-98,264,404,-16
782,1,2022-09-30T19:56:41.975810,566144,-1639,666,-882,-1673,-366,-98,264,404,-16
783,1,2022-09-30T19:56:41.981387,566149,-1643,672,-883,-1653,-355,-99,264,404,-16
784,1,2022-09-30T19:56:41.988334,566155,-1643,672,-883,-1653,-355,-99,264,404,-16
785,1,2022-09-30T19:56:41.995105,566162,-1643,672,-883,-1653,-355,-99,264,404,-16
786,1,2022-09-30T19:56:42.000189,566168,-1635,673,-878,-1659,-385,-56,264,404,-16
787,1,2022-09-30T19:56:42.007089,566174,-1635,673,-878,-1659,-385,-56,264,404,-16
788,1,2022-09-30T19:56:42.013605,566181,-1635,673,-878,-1659,-385,-56,264,404,-16
789,1,2022-09-30T19:56:42.018777,566187,-1634,676,-882,-1677,-369,-21,264,404,-16
790,1,2022-09-30T19:56:42.025996,566194,-1634,676,-882,-1677,-369,-21,264,404,-16
791,1,2022-09-30T19:56:42.032293,566200,-1634,676,-882,-1677,-369,-21,264,404,-16
792,1,2022-09-30T19:56:42.037310,566205,-1641,674,-876,-1691,-350,-27,254,404,-16
793,1,2022-09-30T19:56:42.044032,566211,-1641,674,-876,-1691,-350,-27,254,404,-12
794,1,2022-09-30T19:56:42.049373,566217,-1641,674,-876,-1691,-350,-27,254,404,-12
795,1,2022-09-30T19:56:42.056025,566223,-1641,674,-876,-1691,-350,-27,254,404,-12
796,1,2022-09-30T19:56:42.062628,566230,-1637,672,-875,-1696,-350,-56,254,404,-12
797,1,2022-09-30T19:56:42.069056,566237,-1637,672,-875,-1696,-350,-56,254,404,-12
798,1,2022-09-30T19:56:42.075154,566243,-1637,672,-875,-1696,-350,-56,254,404,-12
799,1,2022-09-30T19:56:42.080623,566248,-1637,669,-876,-1695,-321,-113,254,404,-12
800,1,2022-09-30T19:56:42.086547,566254,-1637,669,-876,-1695,-321,-113,254,404,-12
801,1,2022-09-30T19:56:42.093060,566260,-1637,669,-876,-1695,-321,-113,254,404,-12
802,1,2022-09-30T19:56:42.098580,566265,-1633,668,-882,-1689,-286,-173,254,404,-12
803,1,2022-09-30T19:56:42.107186,566275,-1633,668,-882,-1689,-286,-173,254,404,-12
804,1,2022-09-30T19:56:42.113546,566281,-1633,668,-882,-1689,-286,-173,254,404,-12
805,1,2022-09-30T19:56:42.119107,566286,-1642,666,-887,-1670,-269,-194,254,404,-12
806,1,2022-09-30T19:56:42.126626,566294,-1642,666,-887,-1670,-269,-194,254,404,-12
807,1,2022-09-30T19:56:42.133102,566300,-1642,666,-887,-1670,-269,-194,254,404,-12
808,1,2022-09-30T19:56:42.138320,566305,-1643,664,-884,-1643,-274,-168,254,404,-12
809,1,2022-09-30T19:56:42.145096,566312,-1643,664,-884,-1643,-274,-168,254,404,-12
810,1,2022-09-30T19:56:42.150311,566318,-1643,664,-884,-1643,-274,-168,254,404,-12
811,1,2022-09-30T19:56:42.157156,566324,-1643,664,-884,-1643,-274,-168,254,404,-12
812,1,2022-09-30T19:56:42.163107,566330,-1639,663,-877,-1608,-303,-133,253,407,-17
813,1,2022-09-30T19:56:42.169984,566337,-1639,663,-877,-1608,-303,-133,253,407,-17
814,1,2022-09-30T19:56:42.177140,566344,-1639,663,-877,-1608,-303,-133,253,407,-17
815,1,2022-09-30T19:56:42.183472,566350,-1642,669,-881,-1598,-336,-96,253,407,-17
816,1,2022-09-30T19:56:42.190861,566358,-1642,669,-881,-1598,-336,-96,253,407,-17
817,1,2022-09-30T19:56:42.198536,566366,-1646,672,-876,-1615,-341,-81,253,407,-17
818,1,2022-09-30T19:56:42.206495,566373,-1646,672,-876,-1615,-341,-81,253,407,-17
819,1,2022-09-30T19:56:42.212635,566379,-1646,672,-876,-1615,-341,-81,253,407,-17
820,1,2022-09-30T19:56:42.221298,566387,-1635,667,-878,-1645,-344,-29,253,407,-17
821,1,2022-09-30T19:56:42.230634,566397,-1635,667,-878,-1645,-344,-29,253,407,-17
822,1,2022-09-30T19:56:42.238164,566405,-1630,658,-883,-1641,-265,-24,253,407,-17
823,1,2022-09-30T19:56:42.246235,566413,-1630,658,-883,-1641,-265,-24,253,407,-17
824,1,2022-09-30T19:56:42.252230,566419,-1630,658,-883,-1641,-265,-24,253,407,-17
825,1,2022-09-30T19:56:42.259777,566427,-1639,663,-884,-1614,-196,-65,253,407,-17
826,1,2022-09-30T19:56:42.265662,566432,-1639,663,-884,-1614,-196,-65,253,407,-17
827,1,2022-09-30T19:56:42.271788,566438,-1639,663,-884,-1614,-196,-65,253,407,-17
828,1,2022-09-30T19:56:42.279203,566446,-1646,661,-893,-1589,-231,-80,253,407,-17
829,1,2022-09-30T19:56:42.288605,566456,-1646,661,-893,-1589,-231,-80,253,407,-17
830,1,2022-09-30T19:56:42.295596,566463,-1646,661,-893,-1589,-231,-80,253,407,-17
831,1,2022-09-30T19:56:42.301447,566468,-1649,662,-886,-1575,-289,-74,264,408,-18
832,1,2022-09-30T19:56:42.309468,566476,-1649,662,-886,-1575,-289,-74,264,408,-18
833,1,2022-09-30T19:56:42.316664,566483,-1649,662,-886,-1575,-289,-74,264,408,-18
834,1,2022-09-30T19:56:42.322567,566490,-1638,668,-885,-1583,-347,-48,264,408,-18
835,1,2022-09-30T19:56:42.329799,566497,-1638,668,-885,-1583,-347,-48,264,408,-18
836,1,2022-09-30T19:56:42.337871,566505,-1638,668,-885,-1583,-347,-48,264,408,-18
837,1,2022-09-30T19:56:42.343315,566511,-1636,671,-886,-1608,-344,-22,264,408,-18
838,1,2022-09-30T19:56:42.349569,566517,-1636,671,-886,-1608,-344,-22,264,408,-18
839,1,2022-09-30T19:56:42.356052,566523,-1636,671,-886,-1608,-344,-22,264,408,-18
840,1,2022-09-30T19:56:42.362318,566530,-1640,674,-887,-1643,-328,20,264,408,-18
841,1,2022-09-30T19:56:42.368476,566536,-1640,674,-887,-1643,-328,20,264,408,-18
842,1,2022-09-30T19:56:42.375192,566542,-1640,674,-887,-1643,-328,20,264,408,-18
843,1,2022-09-30T19:56:42.380346,566548,-1634,669,-890,-1672,-336,58,264,408,-18
844,1,2022-09-30T19:56:42.386526,566554,-1634,669,-890,-1672,-336,58,264,408,-18
845,1,2022-09-30T19:56:42.392699,566560,-1634,669,-890,-1672,-336,58,264,408,-18
846,1,2022-09-30T19:56:42.398066,566565,-1634,665,-890,-1643,-331,75,264,408,-18
847,1,2022-09-30T19:56:42.404409,566572,-1634,665,-890,-1643,-331,75,264,408,-18
848,1,2022-09-30T19:56:42.409910,566578,-1634,665,-890,-1643,-331,75,264,408,-18
849,1,2022-09-30T19:56:42.416689,566584,-1634,665,-890,-1643,-331,75,264,408,-18
850,1,2022-09-30T19:56:42.422586,566590,-1640,670,-885,-1576,-312,41,258,416,-18
851,1,2022-09-30T19:56:42.430361,566597,-1640,670,-885,-1576,-312,41,258,416,-18
852,1,2022-09-30T19:56:42.437166,566604,-1640,670,-885,-1576,-312,41,258,416,-18
853,1,2022-09-30T19:56:42.442859,566610,-1646,677,-884,-1536,-307,-45,258,416,-18
854,1,2022-09-30T19:56:42.450124,566617,-1646,677,-884,-1536,-307,-45,258,416,-18
855,1,2022-09-30T19:56:42.458006,566626,-1635,681,-883,-1542,-357,-80,258,416,-18
856,1,2022-09-30T19:56:42.469182,566633,-1635,681,-883,-1542,-357,-80,258,416,-18
857,1,2022-09-30T19:56:42.475781,566643,-1635,681,-883,-1542,-357,-80,258,416,-18
858,1,2022-09-30T19:56:42.485565,566649,-1631,676,-888,-1581,-307,-110,258,416,-18
859,1,2022-09-30T19:56:42.495410,566663,-1631,676,-888,-1581,-307,-110,258,416,-18
860,1,2022-09-30T19:56:42.501569,566668,-1640,669,-885,-1592,-255,-148,258,416,-18
861,1,2022-09-30T19:56:42.510226,566676,-1640,669,-885,-1592,-255,-148,258,416,-18
862,1,2022-09-30T19:56:42.523080,566689,-1641,669,-891,-1568,-269,-163,258,416,-18
863,1,2022-09-30T19:56:42.532668,566700,-1641,669,-891,-1568,-269,-163,258,416,-18
864,1,2022-09-30T19:56:42.537818,566706,-1643,666,-887,-1545,-297,-143,259,411,-25
865,1,2022-09-30T19:56:42.543971,566712,-1643,666,-887,-1545,-297,-143,259,411,-25
866,1,2022-09-30T19:56:42.548802,566717,-1643,666,-887,-1545,-297,-143,259,411,-25
867,1,2022-09-30T19:56:42.554807,566722,-1643,666,-887,-1545,-297,-143,259,411,-25
868,1,2022-09-30T19:56:42.560042,566728,-1638,663,-889,-1514,-338,-109,259,411,-25
869,1,2022-09-30T19:56:42.566255,566733,-1638,663,-889,-1514,-338,-109,259,411,-25
870,1,2022-09-30T19:56:42.571312,566739,-1638,663,-889,-1514,-338,-109,259,411,-25
871,1,2022-09-30T19:56:42.577404,566745,-1641,667,-892,-1489,-347,-91,259,411,-25
872,1,2022-09-30T19:56:42.584629,566753,-1641,667,-892,-1489,-347,-91,259,411,-25
873,1,2022-09-30T19:56:42.589647,566758,-1641,667,-892,-1489,-347,-91,259,411,-25
874,1,2022-09-30T19:56:42.596437,566764,-1641,667,-892,-1489,-347,-91,259,411,-25
875,1,2022-09-30T19:56:42.602615,566769,-1638,672,-887,-1489,-335,-62,259,411,-25
876,1,2022-09-30T19:56:42.610298,566777,-1638,672,-887,-1489,-335,-62,259,411,-25
877,1,2022-09-30T19:56:42.617552,566785,-1638,672,-887,-1489,-335,-62,259,411,-25
878,1,2022-09-30T19:56:42.623859,566791,-1638,671,-893,-1510,-327,-9,259,411,-25
879,1,2022-09-30T19:56:42.631949,566799,-1638,671,-893,-1510,-327,-9,259,411,-25
880,1,2022-09-30T19:56:42.639951,566807,-1640,669,-891,-1523,-318,28,259,411,-25
881,1,2022-09-30T19:56:42.648333,566815,-1640,669,-891,-1523,-318,28,259,411,-25
882,1,2022-09-30T19:56:42.656420,566823,-1640,669,-891,-1523,-318,28,259,411,-25
883,1,2022-09-30T19:56:42.662502,566830,-1642,670,-889,-1511,-331,21,261,413,-13
884,1,2022-09-30T19:56:42.671079,566838,-1642,670,-889,-1511,-331,21,261,413,-13
885,1,2022-09-30T19:56:42.678291,566845,-1645,673,-887,-1499,-348,-18,261,413,-13
886,1,2022-09-30T19:56:42.687084,566854,-1645,673,-887,-1499,-348,-18,261,413,-13
887,1,2022-09-30T19:56:42.692711,566860,-1645,673,-887,-1499,-348,-18,261,413,-13
888,1,2022-09-30T19:56:42.699873,566867,-1639,675,-884,-1489,-397,-29,261,413,-13
889,1,2022-09-30T19:56:42.709156,566877,-1639,675,-884,-1489,-397,-29,261,413,-13
890,1,2022-09-30T19:56:42.716674,566884,-1639,675,-884,-1489,-397,-29,261,413,-13
891,1,2022-09-30T19:56:42.723126,566890,-1636,675,-887,-1496,-415,-39,261,413,-13
892,1,2022-09-30T19:56:42.730434,566897,-1636,675,-887,-1496,-415,-39,261,413,-13
893,1,2022-09-30T19:56:42.738206,566905,-1637,676,-888,-1500,-386,-51,261,413,-13
894,1,2022-09-30T19:56:42.747201,566915,-1637,676,-888,-1500,-386,-51,261,413,-13
895,1,2022-09-30T19:56:42.754810,566922,-1637,676,-888,-1500,-386,-51,261,413,-13
896,1,2022-09-30T19:56:42.760717,566928,-1638,677,-882,-1517,-371,-44,261,413,-13
897,1,2022-09-30T19:56:42.767228,566934,-1638,677,-882,-1517,-371,-44,261,413,-13
898,1,2022-09-30T19:56:42.773944,566941,-1638,677,-882,-1517,-371,-44,261,413,-13
899,1,2022-09-30T19:56:42.779526,566946,-1631,673,-885,-1531,-362,-45,261,413,-13
900,1,2022-09-30T19:56:42.787004,566955,-1631,673,-885,-1531,-362,-45,261,413,-13
901,1,2022-09-30T19:56:42.793205,566961,-1631,673,-885,-1531,-362,-45,261,413,-13
902,1,2022-09-30T19:56:42.798260,566966,-1633,671,-879,-1526,-359,-78,255,407,-17
903,1,2022-09-30T19:56:42.805529,566973,-1633,671,-879,-1526,-359,-78,255,407,-17
904,1,2022-09-30T19:56:42.810598,566978,-1633,671,-879,-1526,-359,-78,255,407,-17
905,1,2022-09-30T19:56:42.815517,566983,-1633,671,-879,-1526,-359,-78,255,407,-17
906,1,2022-09-30T19:56:42.820663,566988,-1634,670,-886,-1489,-356,-99,255,407,-17
907,1,2022-09-30T19:56:42.825819,566993,-1634,670,-886,-1489,-356,-99,255,407,-17
908,1,2022-09-30T19:56:42.830880,566999,-1634,670,-886,-1489,-356,-99,255,407,-17
909,1,2022-09-30T19:56:42.836848,567005,-1634,670,-886,-1489,-356,-99,255,407,-17
910,1,2022-09-30T19:56:42.842954,567011,-1633,672,-885,-1456,-314,-119,255,407,-17
911,1,2022-09-30T19:56:42.848990,567017,-1633,672,-885,-1456,-314,-119,255,407,-17
912,1,2022-09-30T19:56:42.855068,567023,-1633,672,-885,-1456,-314,-119,255,407,-17
913,1,2022-09-30T19:56:42.860829,567027,-1642,671,-891,-1424,-315,-109,255,407,-17
914,1,2022-09-30T19:56:42.869548,567036,-1642,671,-891,-1424,-315,-109,255,407,-17
915,1,2022-09-30T19:56:42.876913,567044,-1642,671,-891,-1424,-315,-109,255,407,-17
916,1,2022-09-30T19:56:42.883374,567050,-1642,671,-891,-1424,-315,-109,255,407,-17
917,1,2022-09-30T19:56:42.889038,567056,-1642,671,-891,-1424,-315,-109,255,407,-17
918,1,2022-09-30T19:56:42.896390,567063,-1642,671,-891,-1424,-315,-109,255,407,-17
919,1,2022-09-30T19:56:42.902417,567069,-1645,679,-878,-1445,-382,-133,255,407,-17
920,1,2022-09-30T19:56:42.912625,567079,-1645,679,-878,-1445,-382,-133,255,407,-17
921,1,2022-09-30T19:56:42.920157,567087,-1649,675,-877,-1483,-409,-130,257,405,-17
922,1,2022-09-30T19:56:42.928370,567095,-1649,675,-877,-1483,-409,-130,257,405,-17
923,1,2022-09-30T19:56:42.935956,567103,-1649,675,-877,-1483,-409,-130,257,405,-17
924,1,2022-09-30T19:56:42.941901,567109,-1626,666,-875,-1513,-405,-109,257,405,-17
925,1,2022-09-30T19:56:42.950611,567117,-1626,666,-875,-1513,-405,-109,257,405,-17
926,1,2022-09-30T19:56:42.958315,567124,-1626,666,-875,-1513,-405,-109,257,405,-17
927,1,2022-09-30T19:56:42.964511,567131,-1629,656,-878,-1491,-289,-144,257,405,-17
928,1,2022-09-30T19:56:42.972264,567140,-1629,656,-878,-1491,-289,-144,257,405,-17
929,1,2022-09-30T19:56:42.979698,567147,-1643,658,-884,-1444,-227,-179,257,405,-17
930,1,2022-09-30T19:56:42.987842,567154,-1643,658,-884,-1444,-227,-179,257,405,-17
931,1,2022-09-30T19:56:42.993876,567161,-1643,658,-884,-1444,-227,-179,257,405,-17
932,1,2022-09-30T19:56:43.001178,567169,-1642,658,-889,-1404,-233,-169,257,405,-17
933,1,2022-09-30T19:56:43.009607,567177,-1642,658,-889,-1404,-233,-169,257,405,-17
934,1,2022-09-30T19:56:43.017022,567184,-1642,658,-889,-1404,-233,-169,257,405,-17
935,1,2022-09-30T19:56:43.023111,567190,-1643,662,-887,-1389,-260,-116,257,405,-17
936,1,2022-09-30T19:56:43.029662,567197,-1643,662,-887,-1389,-260,-116,257,405,-17
937,1,2022-09-30T19:56:43.036147,567204,-1643,662,-887,-1389,-260,-116,257,405,-17
938,1,2022-09-30T19:56:43.041494,567209,-1646,670,-891,-1409,-303,-34,254,406,-16
939,1,2022-09-30T19:56:43.047396,567216,-1646,670,-891,-1409,-303,-34,254,406,-16
940,1,2022-09-30T19:56:43.054264,567222,-1646,670,-891,-1409,-303,-34,254,406,-16
941,1,2022-09-30T19:56:43.060009,567228,-1643,680,-891,-1479,-332,23,254,406,-16
942,1,2022-09-30T19:56:43.066321,567234,-1643,680,-891,-1479,-332,23,254,406,-16
943,1,2022-09-30T19:56:43.071696,567239,-1643,680,-891,-1479,-332,23,254,406,-16
944,1,2022-09-30T19:56:43.078118,567245,-1639,679,-888,-1563,-367,52,254,406,-16
945,1,2022-09-30T19:56:43.084376,567251,-1639,679,-888,-1563,-367,52,254,406,-16
946,1,2022-09-30T19:56:43.089612,567258,-1639,679,-888,-1563,-367,52,254,406,-16
947,1,2022-09-30T19:56:43.095994,567264,-1639,679,-888,-1563,-367,52,254,406,-16
948,1,2022-09-30T19:56:43.101108,567269,-1639,669,-882,-1625,-385,42,254,406,-16
949,1,2022-09-30T19:56:43.107974,567275,-1639,669,-882,-1625,-385,42,254,406,-16
950,1,2022-09-30T19:56:43.114599,567282,-1639,669,-882,-1625,-385,42,254,406,-16
951,1,2022-09-30T19:56:43.119752,567287,-1631,665,-884,-1630,-360,-3,254,406,-16
952,1,2022-09-30T19:56:43.126132,567293,-1631,665,-884,-1630,-360,-3,254,406,-16
953,1,2022-09-30T19:56:43.131323,567299,-1631,665,-884,-1630,-360,-3,254,406,-16
954,1,2022-09-30T19:56:43.137352,567305,-1631,665,-884,-1630,-360,-3,254,406,-16
955,1,2022-09-30T19:56:43.143693,567311,-1643,674,-884,-1600,-313,-71,254,406,-16
956,1,2022-09-30T19:56:43.150277,567317,-1643,674,-884,-1600,-313,-71,254,406,-16
957,1,2022-09-30T19:56:43.156685,567324,-1643,674,-884,-1600,-313,-71,254,406,-16
958,1,2022-09-30T19:56:43.163557,567331,-1644,674,-883,-1564,-347,-45,264,412,-20
959,1,2022-09-30T19:56:43.168879,567336,-1644,674,-883,-1564,-347,-45,264,412,-20
960,1,2022-09-30T19:56:43.176496,567344,-1644,674,-883,-1564,-347,-45,264,412,-20
961,1,2022-09-30T19:56:43.182115,567350,-1624,669,-881,-1533,-395,10,264,412,-20
962,1,2022-09-30T19:56:43.188676,567356,-1624,669,-881,-1533,-395,10,264,412,-20
963,1,2022-09-30T19:56:43.195584,567363,-1624,669,-881,-1533,-395,10,264,412,-20
964,1,2022-09-30T19:56:43.201693,567368,-1639,661,-884,-1468,-318,-11,264,412,-20
965,1,2022-09-30T19:56:43.207865,567374,-1639,661,-884,-1468,-318,-11,264,412,-20
966,1,2022-09-30T19:56:43.214136,567380,-1639,661,-884,-1468,-318,-11,264,412,-20
967,1,2022-09-30T19:56:43.222242,567389,-1642,670,-887,-1412,-280,-58,264,412,-20
968,1,2022-09-30T19:56:43.229712,567396,-1642,670,-887,-1412,-280,-58,264,412,-20
969,1,2022-09-30T19:56:43.237719,567405,-1642,670,-887,-1412,-280,-58,264,412,-20
970,1,2022-09-30T19:56:43.244961,567411,-1640,674,-882,-1387,-301,-91,264,412,-20
971,1,2022-09-30T19:56:43.252400,567419,-1640,674,-882,-1387,-301,-91,264,412,-20
972,1,2022-09-30T19:56:43.261617,567429,-1634,672,-886,-1408,-341,-97,264,412,-20
973,1,2022-09-30T19:56:43.269079,567436,-1634,672,-886,-1408,-341,-97,264,412,-20
974,1,2022-09-30T19:56:43.277260,567444,-1634,672,-886,-1408,-341,-97,264,412,-20
975,1,2022-09-30T19:56:43.283437,567450,-1635,673,-885,-1434,-319,-109,264,412,-20
976,1,2022-09-30T19:56:43.291195,567458,-1635,673,-885,-1434,-319,-109,264,412,-20
977,1,2022-09-30T19:56:43.298500,567465,-1639,670,-885,-1455,-303,-98,255,405,-20
978,1,2022-09-30T19:56:43.307096,567473,-1639,670,-885,-1455,-303,-98,255,405,-17
979,1,2022-09-30T19:56:43.312829,567480,-1639,670,-885,-1455,-303,-98,255,405,-17
980,1,2022-09-30T19:56:43.320241,567487,-1642,666,-885,-1459,-287,-88,255,405,-17
981,1,2022-09-30T19:56:43.326532,567493,-1642,666,-885,-1459,-287,-88,255,405,-17
982,1,2022-09-30T19:56:43.332740,567499,-1642,666,-885,-1459,-287,-88,255,405,-17
983,1,2022-09-30T19:56:43.339918,567507,-1640,660,-891,-1432,-297,-100,255,405,-17
984,1,2022-09-30T19:56:43.347447,567515,-1640,660,-891,-1432,-297,-100,255,405,-17
985,1,2022-09-30T19:56:43.353296,567521,-1640,660,-891,-1432,-297,-100,255,405,-17
986,1,2022-09-30T19:56:43.358555,567526,-1640,660,-891,-1432,-297,-100,255,405,-17
987,1,2022-09-30T19:56:43.364051,567531,-1640,660,-891,-1432,-297,-100,255,405,-17
988,1,2022-09-30T19:56:43.369591,567537,-1640,660,-891,-1432,-297,-100,255,405,-17
989,1,2022-09-30T19:56:43.375997,567543,-1640,660,-891,-1432,-297,-100,255,405,-17
990,1,2022-09-30T19:56:43.381220,567548,-1639,668,-892,-1368,-272,-95,255,405,-17
991,1,2022-09-30T19:56:43.387512,567555,-1639,668,-892,-1368,-272,-95,255,405,-17
992,1,2022-09-30T19:56:43.392445,567561,-1639,668,-892,-1368,-272,-95,255,405,-17
993,1,2022-09-30T19:56:43.399416,567567,-1640,672,-897,-1370,-270,-58,255,405,-17
994,1,2022-09-30T19:56:43.404543,567572,-1640,672,-897,-1370,-270,-58,255,405,-17
995,1,2022-09-30T19:56:43.409546,567577,-1640,672,-897,-1370,-270,-58,255,405,-17
996,1,2022-09-30T19:56:43.415693,567583,-1640,672,-897,-1370,-270,-58,255,405,-17
997,1,2022-09-30T19:56:43.420449,567588,-1643,676,-892,-1410,-272,-26,259,405,-25
998,1,2022-09-30T19:56:43.426606,567595,-1643,676,-892,-1410,-272,-26,259,405,-25
999,1,2022-09-30T19:56:43.432430,567601,-1643,676,-892,-1410,-272,-26,259,405,-25
1000,1,2022-09-30T19:56:43.438574,567607,-1647,676,-889,-1479,-324,-15,259,405,-25
1001,1,2022-09-30T19:56:43.445394,567613,-1647,676,-889,-1479,-324,-15,259,405,-25
1002,1,2022-09-30T19:56:43.450411,567618,-1647,676,-889,-1479,-324,-15,259,405,-25
1003,1,2022-09-30T19:56:43.456803,567624,-1647,676,-889,-1479,-324,-15,259,405,-25
1004,1,2022-09-30T19:56:43.463214,567630,-1640,679,-896,-1563,-382,-27,259,405,-25
1005,1,2022-09-30T19:56:43.469582,567638,-1640,679,-896,-1563,-382,-27,259,405,-25
1006,1,2022-09-30T19:56:43.475845,567644,-1640,679,-896,-1563,-382,-27,259,405,-25
1007,1,2022-09-30T19:56:43.481611,567649,-1638,679,-891,-1622,-412,-47,259,405,-25
1008,1,2022-09-30T19:56:43.487907,567655,-1638,679,-891,-1622,-412,-47,259,405,-25
1009,1,2022-09-30T19:56:43.494514,567662,-1638,679,-891,-1622,-412,-47,259,405,-25
1010,1,2022-09-30T19:56:43.500418,567667,-1640,670,-889,-1644,-415,-64,259,405,-25
1011,1,2022-09-30T19:56:43.507093,567674,-1640,670,-889,-1644,-415,-64,259,405,-25
1012,1,2022-09-30T19:56:43.512592,567680,-1640,670,-889,-1644,-415,-64,259,405,-25
1013,1,2022-09-30T19:56:43.519489,567687,-1633,664,-883,-1620,-431,-98,259,405,-25
1014,1,2022-09-30T19:56:43.526175,567694,-1633,664,-883,-1620,-431,-98,259,405,-25
1015,1,2022-09-30T19:56:43.532207,567700,-1633,664,-883,-1620,-431,-98,259,405,-25
1016,1,2022-09-30T19:56:43.540467,567708,-1637,662,-884,-1546,-431,-130,266,404,-28
1017,1,2022-09-30T19:56:43.548140,567715,-1637,662,-884,-1546,-431,-130,266,404,-28
1018,1,2022-09-30T19:56:43.554066,567721,-1637,662,-884,-1546,-431,-130,266,404,-28
1019,1,2022-09-30T19:56:43.565771,567733,-1643,664,-882,-1471,-422,-145,266,404,-28
1020,1,2022-09-30T19:56:43.573370,567741,-1643,664,-882,-1471,-422,-145,266,404,-28
1021,1,2022-09-30T19:56:43.579784,567747,-1636,663,-880,-1407,-440,-137,266,404,-28
1022,1,2022-09-30T19:56:43.587486,567754,-1636,663,-880,-1407,-440,-137,266,404,-28
1023,1,2022-09-30T19:56:43.593153,567760,-1636,663,-880,-1407,-440,-137,266,404,-28
1024,1,2022-09-30T19:56:43.600465,567768,-1640,668,-875,-1392,-422,-148,266,404,-28
1025,1,2022-09-30T19:56:43.606425,567774,-1640,668,-875,-1392,-422,-148,266,404,-28
1026,1,2022-09-30T19:56:43.612213,567780,-1640,668,-875,-1392,-422,-148,266,404,-28
1027,1,2022-09-30T19:56:43.619189,567786,-1646,667,-878,-1423,-405,-129,266,404,-28
1028,1,2022-09-30T19:56:43.629544,567796,-1646,667,-878,-1423,-405,-129,266,404,-28
1029,1,2022-09-30T19:56:43.641405,567808,-1633,664,-876,-1463,-381,-87,266,404,-28
1030,1,2022-09-30T19:56:43.647859,567815,-1633,664,-876,-1463,-381,-87,266,404,-28
1031,1,2022-09-30T19:56:43.654008,567821,-1633,664,-876,-1463,-381,-87,266,404,-28
1032,1,2022-09-30T19:56:43.664662,567831,-1630,655,-884,-1462,-279,-68,266,404,-8
1033,1,2022-09-30T19:56:43.674299,567841,-1630,655,-884,-1462,-279,-68,266,404,-8
1034,1,2022-09-30T19:56:43.682434,567848,-1643,655,-880,-1418,-181,-120,266,404,-8
1035,1,2022-09-30T19:56:43.694025,567861,-1643,655,-880,-1418,-181,-120,266,404,-8
1036,1,2022-09-30T19:56:43.703978,567870,-1649,661,-886,-1377,-209,-128,266,404,-8
1037,1,2022-09-30T19:56:43.716140,567883,-1649,661,-886,-1377,-209,-128,266,404,-8
1038,1,2022-09-30T19:56:43.722644,567889,-1646,663,-892,-1365,-263,-104,266,404,-8
1039,1,2022-09-30T19:56:43.732759,567899,-1646,663,-892,-1365,-263,-104,266,404,-8
1040,1,2022-09-30T19:56:43.744580,567912,-1645,671,-891,-1394,-295,-62,266,404,-8
1041,1,2022-09-30T19:56:43.752607,567919,-1645,671,-891,-1394,-295,-62,266,404,-8
1042,1,2022-09-30T19:56:43.762212,567929,-1637,677,-894,-1452,-308,14,266,404,-8
1043,1,2022-09-30T19:56:43.772090,567939,-1637,677,-894,-1452,-308,14,266,404,-8
1044,1,2022-09-30T19:56:43.778957,567947,-1641,671,-893,-1523,-327,62,266,404,-8
1045,1,2022-09-30T19:56:43.786545,567953,-1641,671,-893,-1523,-327,62,266,404,-8
1046,1,2022-09-30T19:56:43.792516,567960,-1641,671,-893,-1523,-327,62,266,404,-8
1047,1,2022-09-30T19:56:43.798967,567967,-1635,669,-884,-1575,-345,60,264,408,-18
1048,1,2022-09-30T19:56:43.806208,567973,-1635,669,-884,-1575,-345,60,264,408,-18
1049,1,2022-09-30T19:56:43.812168,567980,-1635,669,-884,-1575,-345,60,264,408,-18
1050,1,2022-09-30T19:56:43.818773,567987,-1640,668,-885,-1584,-368,0,264,408,-18
1051,1,2022-09-30T19:56:43.825740,567994,-1640,668,-885,-1584,-368,0,264,408,-18
1052,1,2022-09-30T19:56:43.831321,567999,-1640,668,-885,-1584,-368,0,264,408,-18
1053,1,2022-09-30T19:56:43.838822,568006,-1640,674,-890,-1570,-383,-51,264,408,-18
1054,1,2022-09-30T19:56:43.847068,568014,-1640,674,-890,-1570,-383,-51,264,408,-18
1055,1,2022-09-30T19:56:43.853162,568020,-1640,674,-890,-1570,-383,-51,264,408,-18
1056,1,2022-09-30T19:56:43.859779,568028,-1645,679,-884,-1568,-382,-70,264,408,-18
1057,1,2022-09-30T19:56:43.866495,568034,-1645,679,-884,-1568,-382,-70,264,408,-18
1058,1,2022-09-30T19:56:43.872006,568040,-1645,679,-884,-1568,-382,-70,264,408,-18
1059,1,2022-09-30T19:56:43.877212,568045,-1645,679,-884,-1568,-382,-70,264,408,-18
1060,1,2022-09-30T19:56:43.883259,568051,-1635,674,-887,-1588,-437,-40,264,408,-18
1061,1,2022-09-30T19:56:43.889699,568057,-1635,674,-887,-1588,-437,-40,264,408,-18
1062,1,2022-09-30T19:56:43.898609,568067,-1633,667,-880,-1596,-418,-15,264,408,-18
1063,1,2022-09-30T19:56:43.904021,568072,-1633,667,-880,-1596,-418,-15,264,408,-18
1064,1,2022-09-30T19:56:43.910741,568077,-1633,667,-880,-1596,-418,-15,264,408,-18
1065,1,2022-09-30T19:56:43.918017,568086,-1633,667,-880,-1596,-418,-15,264,408,-18
1066,1,2022-09-30T19:56:43.923262,568091,-1637,665,-882,-1575,-340,-61,261,403,-19
1067,1,2022-09-30T19:56:43.929586,568097,-1637,665,-882,-1575,-340,-61,261,403,-19
1068,1,2022-09-30T19:56:43.937673,568104,-1637,665,-882,-1575,-340,-61,261,403,-19
1069,1,2022-09-30T19:56:43.943040,568111,-1648,668,-883,-1559,-330,-120,261,403,-19
1070,1,2022-09-30T19:56:43.951300,568119,-1648,668,-883,-1559,-330,-120,261,403,-19
1071,1,2022-09-30T19:56:43.960369,568126,-1643,668,-884,-1563,-367,-131,261,403,-19
1072,1,2022-09-30T19:56:43.969839,568137,-1643,668,-884,-1563,-367,-131,261,403,-19
1073,1,2022-09-30T19:56:43.976830,568144,-1643,668,-884,-1563,-367,-131,261,403,-19
1074,1,2022-09-30T19:56:43.983501,568150,-1635,667,-882,-1552,-367,-136,261,403,-19
1075,1,2022-09-30T19:56:43.994177,568162,-1635,667,-882,-1552,-367,-136,261,403,-19
1076,1,2022-09-30T19:56:44.000746,568169,-1638,670,-881,-1547,-321,-123,261,403,-19
1077,1,2022-09-30T19:56:44.011710,568175,-1638,670,-881,-1547,-321,-123,261,403,-19
1078,1,2022-09-30T19:56:44.017096,568184,-1638,670,-881,-1547,-321,-123,261,403,-19
1079,1,2022-09-30T19:56:44.023353,568192,-1640,664,-882,-1547,-301,-61,261,403,-19
1080,1,2022-09-30T19:56:44.033871,568200,-1640,664,-882,-1547,-301,-61,261,403,-19
1081,1,2022-09-30T19:56:44.039276,568207,-1637,663,-880,-1544,-295,-6,267,409,-23
1082,1,2022-09-30T19:56:44.048775,568216,-1637,663,-880,-1544,-295,-6,267,409,-23
1083,1,2022-09-30T19:56:44.055122,568222,-1637,663,-880,-1544,-295,-6,267,409,-23
1084,1,2022-09-30T19:56:44.067189,568235,-1639,661,-880,-1535,-303,12,267,409,-23
1085,1,2022-09-30T19:56:44.075375,568242,-1639,661,-880,-1535,-303,12,267,409,-23
1086,1,2022-09-30T19:56:44.085745,568251,-1636,666,-888,-1514,-300,-9,267,409,-23
1087,1,2022-09-30T19:56:44.096173,568262,-1636,666,-888,-1514,-300,-9,267,409,-23
1088,1,2022-09-30T19:56:44.104158,568270,-1643,673,-890,-1510,-278,-64,267,409,-23
1089,1,2022-09-30T19:56:44.119555,568286,-1643,673,-890,-1510,-278,-64,267,409,-23
1090,1,2022-09-30T19:56:44.127739,568294,-1645,676,-888,-1543,-301,-62,267,409,-23
1091,1,2022-09-30T19:56:44.135624,568302,-1645,676,-888,-1543,-301,-62,267,409,-23
1092,1,2022-09-30T19:56:44.143286,568310,-1641,668,-892,-1592,-339,-51,267,409,-23
1093,1,2022-09-30T19:56:44.154006,568321,-1641,668,-892,-1592,-339,-51,267,409,-23
1094,1,2022-09-30T19:56:44.163655,568327,-1639,672,-881,-1637,-350,-45,257,401,-17
1095,1,2022-09-30T19:56:44.173401,568339,-1639,672,-881,-1637,-350,-45,257,401,-17
1096,1,2022-09-30T19:56:44.181761,568348,-1639,672,-881,-1648,-351,-57,257,401,-17
1097,1,2022-09-30T19:56:44.194616,568361,-1639,672,-881,-1648,-351,-57,257,401,-17
1098,1,2022-09-30T19:56:44.202075,568370,-1638,667,-885,-1641,-336,-77,257,401,-17
1099,1,2022-09-30T19:56:44.209431,568376,-1638,667,-885,-1641,-336,-77,257,401,-17
1100,1,2022-09-30T19:56:44.216399,568384,-1638,667,-885,-1641,-336,-77,257,401,-17
1101,1,2022-09-30T19:56:44.223336,568391,-1639,668,-885,-1606,-307,-81,257,401,-17
1102,1,2022-09-30T19:56:44.230324,568397,-1639,668,-885,-1606,-307,-81,257,401,-17
1103,1,2022-09-30T19:56:44.242198,568409,-1640,670,-885,-1578,-311,-51,257,401,-17
1104,1,2022-09-30T19:56:44.248665,568416,-1640,670,-885,-1578,-311,-51,257,401,-17
1105,1,2022-09-30T19:56:44.255657,568423,-1640,670,-885,-1578,-311,-51,257,401,-17
1106,1,2022-09-30T19:56:44.263309,568430,-1633,669,-891,-1583,-311,-44,257,401,-17
1107,1,2022-09-30T19:56:44.273658,568441,-1633,669,-891,-1583,-311,-44,257,401,-17
1108,1,2022-09-30T19:56:44.280068,568448,-1640,668,-889,-1581,-290,-52,257,401,-17
1109,1,2022-09-30T19:56:44.289783,568457,-1640,668,-889,-1581,-290,-52,257,401,-17
1110,1,2022-09-30T19:56:44.299774,568465,-1640,668,-889,-1581,-290,-52,257,401,-17
1111,1,2022-09-30T19:56:44.305819,568473,-1646,671,-885,-1581,-307,-53,261,405,-15
1112,1,2022-09-30T19:56:44.314226,568482,-1646,671,-885,-1581,-307,-53,261,405,-15
1113,1,2022-09-30T19:56:44.320390,568488,-1648,673,-889,-1603,-360,-64,261,405,-15
1114,1,2022-09-30T19:56:44.326585,568495,-1648,673,-889,-1603,-360,-64,261,405,-15
1115,1,2022-09-30T19:56:44.332189,568500,-1648,673,-889,-1603,-360,-64,261,405,-15
1116,1,2022-09-30T19:56:44.338409,568506,-1642,679,-886,-1643,-425,-75,261,405,-15
1117,1,2022-09-30T19:56:44.345423,568513,-1642,679,-886,-1643,-425,-75,261,405,-15
1118,1,2022-09-30T19:56:44.350503,568518,-1642,679,-886,-1643,-425,-75,261,405,-15
1119,1,2022-09-30T19:56:44.357202,568524,-1642,679,-886,-1643,-425,-75,261,405,-15
1120,1,2022-09-30T19:56:44.362265,568530,-1643,673,-881,-1675,-441,-80,261,405,-15
1121,1,2022-09-30T19:56:44.369145,568537,-1643,673,-881,-1675,-441,-80,261,405,-15
1122,1,2022-09-30T19:56:44.375249,568543,-1643,673,-881,-1675,-441,-80,261,405,-15
1123,1,2022-09-30T19:56:44.380268,568548,-1623,671,-882,-1697,-408,-52,261,405,-15
1124,1,2022-09-30T19:56:44.386918,568555,-1623,671,-882,-1697,-408,-52,261,405,-15
1125,1,2022-09-30T19:56:44.391794,568560,-1623,671,-882,-1697,-408,-52,261,405,-15
1126,1,2022-09-30T19:56:44.397970,568566,-1623,671,-882,-1697,-408,-52,261,405,-15
1127,1,2022-09-30T19:56:44.403912,568571,-1630,660,-884,-1663,-281,-58,261,405,-15
1128,1,2022-09-30T19:56:44.410314,568578,-1630,660,-884,-1663,-281,-58,261,405,-15
1129,1,2022-09-30T19:56:44.416706,568585,-1630,660,-884,-1663,-281,-58,261,405,-15
1130,1,2022-09-30T19:56:44.422737,568590,-1640,663,-885,-1612,-192,-113,255,407,-15
1131,1,2022-09-30T19:56:44.430181,568598,-1640,663,-885,-1612,-192,-113,255,407,-15
1132,1,2022-09-30T19:56:44.437406,568604,-1640,663,-885,-1612,-192,-113,255,407,-15
1133,1,2022-09-30T19:56:44.442870,568610,-1645,665,-886,-1548,-242,-115,255,407,-15
1134,1,2022-09-30T19:56:44.449307,568616,-1645,665,-886,-1548,-242,-115,255,407,-15
1135,1,2022-09-30T19:56:44.455386,568624,-1645,665,-886,-1548,-242,-115,255,407,-15
1136,1,2022-09-30T19:56:44.460884,568629,-1639,667,-896,-1510,-316,-96,255,407,-15
1137,1,2022-09-30T19:56:44.469016,568637,-1639,667,-896,-1510,-316,-96,255,407,-15
1138,1,2022-09-30T19:56:44.475944,568643,-1639,667,-896,-1510,-316,-96,255,407,-15
1139,1,2022-09-30T19:56:44.481736,568649,-1637,672,-893,-1496,-328,-60,255,407,-15
1140,1,2022-09-30T19:56:44.489054,568656,-1637,672,-893,-1496,-328,-60,255,407,-15
1141,1,2022-09-30T19:56:44.496136,568664,-1637,672,-893,-1496,-328,-60,255,407,-15
1142,1,2022-09-30T19:56:44.501515,568669,-1641,678,-888,-1526,-309,-58,255,407,-15
1143,1,2022-09-30T19:56:44.508156,568676,-1641,678,-888,-1526,-309,-58,255,407,-15
1144,1,2022-09-30T19:56:44.513402,568681,-1641,678,-888,-1526,-309,-58,255,407,-15
1145,1,2022-09-30T19:56:44.520283,568687,-1643,676,-888,-1583,-334,-44,255,407,-15
1146,1,2022-09-30T19:56:44.527846,568695,-1643,676,-888,-1583,-334,-44,255,407,-15
1147,1,2022-09-30T19:56:44.533803,568700,-1643,676,-888,-1583,-334,-44,255,407,-15
1148,1,2022-09-30T19:56:44.541631,568709,-1638,676,-883,-1633,-345,-62,265,405,-23
1149,1,2022-09-30T19:56:44.549357,568716,-1638,676,-883,-1633,-345,-62,265,405,-23
1150,1,2022-09-30T19:56:44.555776,568723,-1638,676,-883,-1633,-345,-62,265,405,-23
1151,1,2022-09-30T19:56:44.563722,568730,-1632,669,-888,-1642,-343,-74,265,405,-23
1152,1,2022-09-30T19:56:44.571907,568738,-1632,669,-888,-1642,-343,-74,265,405,-23
1153,1,2022-09-30T19:56:44.579672,568747,-1633,665,-892,-1605,-320,-108,265,405,-23
1154,1,2022-09-30T19:56:44.587856,568755,-1633,665,-892,-1605,-320,-108,265,405,-23
1155,1,2022-09-30T19:56:44.594126,568761,-1633,665,-892,-1605,-320,-108,265,405,-23
1156,1,2022-09-30T19:56:44.601717,568769,-1644,674,-894,-1552,-285,-139,265,405,-23
1157,1,2022-09-30T19:56:44.610915,568778,-1644,674,-894,-1552,-285,-139,265,405,-23
1158,1,2022-09-30T19:56:44.618897,568785,-1644,674,-894,-1552,-285,-139,265,405,-23
1159,1,2022-09-30T19:56:44.624918,568792,-1639,674,-888,-1531,-340,-100,265,405,-23
1160,1,2022-09-30T19:56:44.635845,568801,-1639,674,-888,-1531,-340,-100,265,405,-23
1161,1,2022-09-30T19:56:44.644165,568811,-1636,668,-889,-1532,-371,-63,265,405,-23
1162,1,2022-09-30T19:56:44.653203,568820,-1636,668,-889,-1532,-371,-63,265,405,-23
1163,1,2022-09-30T19:56:44.660697,568827,-1634,669,-891,-1533,-353,-105,259,407,-19
1164,1,2022-09-30T19:56:44.669127,568837,-1634,669,-891,-1533,-353,-105,259,407,-19
1165,1,2022-09-30T19:56:44.674978,568842,-1634,669,-891,-1533,-353,-105,259,407,-19
1166,1,2022-09-30T19:56:44.682448,568850,-1643,674,-889,-1554,-330,-162,259,407,-19
1167,1,2022-09-30T19:56:44.691252,568858,-1643,674,-889,-1554,-330,-162,259,407,-19
1168,1,2022-09-30T19:56:44.698381,568865,-1643,674,-889,-1554,-330,-162,259,407,-19
1169,1,2022-09-30T19:56:44.704218,568872,-1643,672,-887,-1596,-346,-180,259,407,-19
1170,1,2022-09-30T19:56:44.712189,568880,-1643,672,-887,-1596,-346,-180,259,407,-19
1171,1,2022-09-30T19:56:44.718881,568887,-1636,666,-884,-1634,-368,-177,259,407,-19
1172,1,2022-09-30T19:56:44.726437,568894,-1636,666,-884,-1634,-368,-177,259,407,-19
1173,1,2022-09-30T19:56:44.731724,568899,-1636,666,-884,-1634,-368,-177,259,407,-19
1174,1,2022-09-30T19:56:44.738088,568906,-1636,666,-884,-1634,-368,-177,259,407,-19
1175,1,2022-09-30T19:56:44.743945,568911,-1638,662,-883,-1638,-353,-173,259,407,-19
1176,1,2022-09-30T19:56:44.750194,568918,-1638,662,-883,-1638,-353,-173,259,407,-19
1177,1,2022-09-30T19:56:44.756405,568925,-1638,662,-883,-1638,-353,-173,259,407,-19
1178,1,2022-09-30T19:56:44.761712,568929,-1642,657,-884,-1612,-339,-141,259,407,-19
1179,1,2022-09-30T19:56:44.769290,568937,-1642,657,-884,-1612,-339,-141,259,407,-19
1180,1,2022-09-30T19:56:44.774806,568942,-1642,657,-884,-1612,-339,-141,259,407,-19
1181,1,2022-09-30T19:56:44.780300,568948,-1642,657,-884,-1574,-332,-89,259,407,-19
1182,1,2022-09-30T19:56:44.787866,568955,-1642,657,-884,-1574,-332,-89,259,407,-19
1183,1,2022-09-30T19:56:44.794152,568962,-1642,657,-884,-1574,-332,-89,259,407,-19
1184,1,2022-09-30T19:56:44.800899,568969,-1644,659,-887,-1528,-312,-71,262,406,-8
1185,1,2022-09-30T19:56:44.808326,568976,-1644,659,-887,-1528,-312,-71,262,406,-8
1186,1,2022-09-30T19:56:44.813943,568981,-1644,659,-887,-1528,-312,-71,262,406,-8
1187,1,2022-09-30T19:56:44.821666,568989,-1639,663,-882,-1482,-315,-49,262,406,-8
1188,1,2022-09-30T19:56:44.829903,568996,-1639,663,-882,-1482,-315,-49,262,406,-8
1189,1,2022-09-30T19:56:44.836974,569005,-1639,663,-882,-1482,-315,-49,262,406,-8
1190,1,2022-09-30T19:56:44.842401,569010,-1633,667,-884,-1443,-337,-21,262,406,-8
1191,1,2022-09-30T19:56:44.850656,569018,-1633,667,-884,-1443,-337,-21,262,406,-8
1192,1,2022-09-30T19:56:44.857506,569025,-1633,667,-884,-1443,-337,-21,262,406,-8
1193,1,2022-09-30T19:56:44.863239,569030,-1629,671,-881,-1431,-312,-12,262,406,-8
1194,1,2022-09-30T19:56:44.870492,569037,-1629,671,-881,-1431,-312,-12,262,406,-8
1195,1,2022-09-30T19:56:44.877049,569044,-1629,671,-881,-1431,-312,-12,262,406,-8
1196,1,2022-09-30T19:56:44.882925,569050,-1631,672,-886,-1426,-281,-41,262,406,-8
1197,1,2022-09-30T19:56:44.891125,569058,-1631,672,-886,-1426,-281,-41,262,406,-8
1198,1,2022-09-30T19:56:44.898007,569065,-1631,672,-886,-1426,-281,-41,262,406,-8
1199,1,2022-09-30T19:56:44.903752,569071,-1643,675,-886,-1452,-249,-98,262,406,-8
1200,1,2022-09-30T19:56:44.911447,569078,-1643,675,-886,-1452,-249,-98,262,406,-8
1201,1,2022-09-30T19:56:44.918605,569085,-1643,675,-886,-1452,-249,-98,262,406,-8
1202,1,2022-09-30T19:56:44.923827,569092,-1652,675,-886,-1489,-291,-124,266,404,-24
1203,1,2022-09-30T19:56:44.932499,569100,-1652,675,-886,-1489,-291,-124,266,404,-24
1204,1,2022-09-30T19:56:44.939781,569107,-1641,672,-884,-1537,-349,-123,266,404,-24
1205,1,2022-09-30T19:56:44.947526,569114,-1641,672,-884,-1537,-349,-123,266,404,-24
1206,1,2022-09-30T19:56:44.953967,569121,-1641,672,-884,-1537,-349,-123,266,404,-24
1207,1,2022-09-30T19:56:44.961041,569128,-1636,663,-887,-1546,-349,-122,266,404,-24
1208,1,2022-09-30T19:56:44.968557,569136,-1636,663,-887,-1546,-349,-122,266,404,-24
1209,1,2022-09-30T19:56:44.974199,569142,-1636,663,-887,-1546,-349,-122,266,404,-24
1210,1,2022-09-30T19:56:44.980856,569149,-1637,660,-884,-1534,-322,-133,266,404,-24
1211,1,2022-09-30T19:56:44.988375,569155,-1637,660,-884,-1534,-322,-133,266,404,-24
1212,1,2022-09-30T19:56:44.993648,569161,-1637,660,-884,-1534,-322,-133,266,404,-24
1213,1,2022-09-30T19:56:45.000101,569167,-1631,661,-891,-1499,-288,-138,266,404,-24
1214,1,2022-09-30T19:56:45.006074,569174,-1631,661,-891,-1499,-288,-138,266,404,-24
1215,1,2022-09-30T19:56:45.011835,569180,-1631,661,-891,-1499,-288,-138,266,404,-24
1216,1,2022-09-30T19:56:45.018530,569186,-1631,661,-891,-1499,-288,-138,266,404,-24
1217,1,2022-09-30T19:56:45.024302,569192,-1640,663,-891,-1475,-248,-113,266,404,-24
1218,1,2022-09-30T19:56:45.033144,569199,-1640,663,-891,-1475,-248,-113,266,404,-24
1219,1,2022-09-30T19:56:45.040179,569207,-1643,662,-895,-1454,-265,-71,256,410,-24
1220,1,2022-09-30T19:56:45.048750,569216,-1643,662,-895,-1454,-265,-71,256,410,-24
1221,1,2022-09-30T19:56:45.054736,569222,-1643,662,-895,-1454,-265,-71,256,410,-24
1222,1,2022-09-30T19:56:45.061993,569229,-1640,661,-895,-1453,-312,-55,256,410,-24
1223,1,2022-09-30T19:56:45.070401,569237,-1640,661,-895,-1453,-312,-55,256,410,-24
1224,1,2022-09-30T19:56:45.077328,569244,-1640,661,-895,-1453,-312,-55,256,410,-24
1225,1,2022-09-30T19:56:45.084382,569250,-1645,669,-897,-1473,-338,-62,256,410,-24
1226,1,2022-09-30T19:56:45.091984,569259,-1645,669,-897,-1473,-338,-62,256,410,-24
1227,1,2022-09-30T19:56:45.099997,569268,-1648,673,-886,-1516,-370,-65,256,410,-24
1228,1,2022-09-30T19:56:45.108551,569276,-1648,673,-886,-1516,-370,-65,256,410,-24
1229,1,2022-09-30T19:56:45.114276,569281,-1648,673,-886,-1516,-370,-65,256,410,-24
1230,1,2022-09-30T19:56:45.122016,569289,-1629,668,-896,-1572,-391,-14,256,410,-24
1231,1,2022-09-30T19:56:45.131234,569297,-1629,668,-896,-1572,-391,-14,256,410,-24
1232,1,2022-09-30T19:56:45.138996,569306,-1629,668,-896,-1572,-391,-14,256,410,-24
1233,1,2022-09-30T19:56:45.145114,569312,-1632,658,-891,-1571,-330,9,256,410,-24
1234,1,2022-09-30T19:56:45.154464,569322,-1632,658,-891,-1571,-330,9,256,410,-24
1235,1,2022-09-30T19:56:45.162866,569330,-1638,660,-891,-1516,-273,-32,260,402,-26
1236,1,2022-09-30T19:56:45.169274,569336,-1638,660,-891,-1516,-273,-32,260,402,-26
1237,1,2022-09-30T19:56:45.175485,569342,-1638,660,-891,-1516,-273,-32,260,402,-26
1238,1,2022-09-30T19:56:45.183293,569351,-1638,660,-891,-1516,-273,-32,260,402,-26
1239,1,2022-09-30T19:56:45.189942,569357,-1638,660,-891,-1516,-273,-32,260,402,-26
1240,1,2022-09-30T19:56:45.196245,569363,-1638,660,-891,-1516,-273,-32,260,402,-26
1241,1,2022-09-30T19:56:45.204599,569371,-1649,669,-900,-1440,-376,-31,260,402,-26
1242,1,2022-09-30T19:56:45.214344,569381,-1649,669,-900,-1440,-376,-31,260,402,-26
1243,1,2022-09-30T19:56:45.221984,569389,-1637,672,-890,-1457,-422,-20,260,402,-26
1244,1,2022-09-30T19:56:45.231136,569398,-1637,672,-890,-1457,-422,-20,260,402,-26
1245,1,2022-09-30T19:56:45.238703,569406,-1637,672,-890,-1457,-422,-20,260,402,-26
1246,1,2022-09-30T19:56:45.244702,569412,-1634,672,-889,-1494,-404,-27,260,402,-26
1247,1,2022-09-30T19:56:45.251680,569418,-1634,672,-889,-1494,-404,-27,260,402,-26
1248,1,2022-09-30T19:56:45.258770,569426,-1634,672,-889,-1494,-404,-27,260,402,-26
1249,1,2022-09-30T19:56:45.265061,569432,-1637,668,-885,-1528,-387,-20,260,402,-26
1250,1,2022-09-30T19:56:45.271684,569439,-1637,668,-885,-1528,-387,-20,260,402,-26
1251,1,2022-09-30T19:56:45.279248,569447,-1636,667,-883,-1544,-374,-17,260,402,-26
1252,1,2022-09-30T19:56:45.287117,569455,-1636,667,-883,-1544,-374,-17,260,402,-26
1253,1,2022-09-30T19:56:45.294652,569460,-1636,667,-883,-1544,-374,-17,260,402,-26
1254,1,2022-09-30T19:56:45.301454,569469,-1638,665,-884,-1501,-339,-42,259,407,-21
1255,1,2022-09-30T19:56:45.308920,569477,-1638,665,-884,-1501,-339,-42,259,407,-21
1256,1,2022-09-30T19:56:45.314032,569482,-1638,665,-884,-1501,-339,-42,259,407,-21
1257,1,2022-09-30T19:56:45.319011,569487,-1641,667,-886,-1439,-330,-60,259,407,-21
1258,1,2022-09-30T19:56:45.325789,569493,-1641,667,-886,-1439,-330,-60,259,407,-21
1259,1,2022-09-30T19:56:45.331013,569499,-1641,667,-886,-1439,-330,-60,259,407,-21
1260,1,2022-09-30T19:56:45.338174,569506,-1641,667,-886,-1439,-330,-60,259,407,-21
1261,1,2022-09-30T19:56:45.343270,569511,-1648,673,-884,-1385,-349,-74,259,407,-21
1262,1,2022-09-30T19:56:45.350016,569518,-1648,673,-884,-1385,-349,-74,259,407,-21
1263,1,2022-09-30T19:56:45.355601,569523,-1648,673,-884,-1385,-349,-74,259,407,-21
1264,1,2022-09-30T19:56:45.362127,569530,-1639,673,-884,-1389,-410,-56,259,407,-21
1265,1,2022-09-30T19:56:45.368716,569536,-1639,673,-884,-1389,-410,-56,259,407,-21
1266,1,2022-09-30T19:56:45.374231,569541,-1639,673,-884,-1389,-410,-56,259,407,-21
1267,1,2022-09-30T19:56:45.380912,569548,-1628,667,-888,-1394,-415,-53,259,407,-21
1268,1,2022-09-30T19:56:45.387701,569555,-1628,667,-888,-1394,-415,-53,259,407,-21
1269,1,2022-09-30T19:56:45.393359,569561,-1628,667,-888,-1394,-415,-53,259,407,-21
1270,1,2022-09-30T19:56:45.399918,569568,-1634,661,-883,-1370,-319,-122,259,407,-21
1271,1,2022-09-30T19:56:45.408061,569574,-1634,661,-883,-1370,-319,-122,259,407,-21
1272,1,2022-09-30T19:56:45.413869,569581,-1634,661,-883,-1370,-319,-122,259,407,-21
1273,1,2022-09-30T19:56:45.421675,569589,-1648,669,-888,-1351,-280,-182,264,412,-18
1274,1,2022-09-30T19:56:45.428630,569596,-1648,669,-888,-1351,-280,-182,264,412,-18
1275,1,2022-09-30T19:56:45.434103,569602,-1648,669,-888,-1351,-280,-182,264,412,-18
1276,1,2022-09-30T19:56:45.440854,569609,-1643,673,-889,-1366,-317,-174,264,412,-18
1277,1,2022-09-30T19:56:45.449999,569618,-1643,673,-889,-1366,-317,-174,264,412,-18
1278,1,2022-09-30T19:56:45.455674,569623,-1643,673,-889,-1366,-317,-174,264,412,-18
1279,1,2022-09-30T19:56:45.466036,569633,-1642,668,-889,-1411,-360,-140,264,412,-18
1280,1,2022-09-30T19:56:45.471489,569639,-1642,668,-889,-1411,-360,-140,264,412,-18
1281,1,2022-09-30T19:56:45.478851,569647,-1639,662,-884,-1428,-362,-107,264,412,-18
1282,1,2022-09-30T19:56:45.492970,569660,-1639,662,-884,-1428,-362,-107,264,412,-18
1283,1,2022-09-30T19:56:45.500241,569668,-1638,661,-892,-1428,-339,-78,264,412,-18
1284,1,2022-09-30T19:56:45.506106,569673,-1638,661,-892,-1428,-339,-78,264,412,-18
1285,1,2022-09-30T19:56:45.513959,569681,-1638,661,-892,-1428,-339,-78,264,412,-18
1286,1,2022-09-30T19:56:45.521966,569690,-1632,659,-889,-1411,-325,-59,264,412,-18
1287,1,2022-09-30T19:56:45.529741,569698,-1632,659,-889,-1411,-325,-59,264,412,-18
1288,1,2022-09-30T19:56:45.535580,569703,-1632,659,-889,-1411,-325,-59,264,412,-18
1289,1,2022-09-30T19:56:45.543691,569711,-1635,657,-886,-1384,-292,-56,260,404,-22
1290,1,2022-09-30T19:56:45.550787,569718,-1635,657,-886,-1384,-292,-56,260,404,-22
1291,1,2022-09-30T19:56:45.556084,569723,-1635,657,-886,-1384,-292,-56,260,404,-22
1292,1,2022-09-30T19:56:45.563496,569731,-1639,662,-894,-1358,-270,-57,260,404,-22
1293,1,2022-09-30T19:56:45.573008,569741,-1639,662,-894,-1358,-270,-57,260,404,-22
1294,1,2022-09-30T19:56:45.580148,569748,-1644,664,-896,-1362,-266,-43,260,404,-22
1295,1,2022-09-30T19:56:45.587576,569754,-1644,664,-896,-1362,-266,-43,260,404,-22
1296,1,2022-09-30T19:56:45.594016,569761,-1644,664,-896,-1362,-266,-43,260,404,-22
1297,1,2022-09-30T19:56:45.600364,569768,-1646,669,-894,-1384,-313,-3,260,404,-22
1298,1,2022-09-30T19:56:45.608969,569776,-1646,669,-894,-1384,-313,-3,260,404,-22
1299,1,2022-09-30T19:56:45.616948,569782,-1646,669,-894,-1384,-313,-3,260,404,-22
1300,1,2022-09-30T19:56:45.624045,569792,-1636,668,-890,-1424,-397,22,260,404,-22
1301,1,2022-09-30T19:56:45.629497,569797,-1636,668,-890,-1424,-397,22,260,404,-22
1302,1,2022-09-30T19:56:45.635602,569802,-1636,668,-890,-1424,-397,22,260,404,-22
1303,1,2022-09-30T19:56:45.645330,569814,-1636,667,-892,-1460,-406,-6,260,404,-22
1304,1,2022-09-30T19:56:45.652601,569821,-1636,667,-892,-1460,-406,-6,260,404,-22
1305,1,2022-09-30T19:56:45.659443,569827,-1643,674,-888,-1496,-391,-50,260,404,-22
1306,1,2022-09-30T19:56:45.669289,569837,-1643,674,-888,-1496,-391,-50,257,415,-23
1307,1,2022-09-30T19:56:45.674740,569842,-1643,674,-888,-1496,-391,-50,257,415,-23
1308,1,2022-09-30T19:56:45.681061,569848,-1641,672,-887,-1545,-411,-87,257,415,-23
1309,1,2022-09-30T19:56:45.690989,569858,-1641,672,-887,-1545,-411,-87,257,415,-23
1310,1,2022-09-30T19:56:45.698058,569865,-1641,672,-887,-1545,-411,-87,257,415,-23
1311,1,2022-09-30T19:56:45.705829,569873,-1637,668,-888,-1590,-409,-121,257,415,-23
1312,1,2022-09-30T19:56:45.719358,569886,-1637,668,-888,-1590,-409,-121,257,415,-23
1313,1,2022-09-30T19:56:45.727776,569894,-1638,661,-888,-1607,-396,-116,257,415,-23
1314,1,2022-09-30T19:56:45.742119,569909,-1639,662,-886,-1602,-393,-120,257,415,-23
1315,1,2022-09-30T19:56:45.757433,569924,-1639,662,-886,-1602,-393,-120,257,415,-23
1316,1,2022-09-30T19:56:45.767034,569933,-1645,660,-885,-1581,-373,-96,257,415,-23
1317,1,2022-09-30T19:56:45.778555,569946,-1645,660,-885,-1581,-373,-96,257,415,-23
1318,1,2022-09-30T19:56:45.792535,569959,-1642,657,-883,-1531,-396,-54,257,415,-23
1319,1,2022-09-30T19:56:45.803367,569970,-1637,659,-882,-1485,-411,-48,264,402,-14
1320,1,2022-09-30T19:56:45.814585,569980,-1637,659,-882,-1485,-411,-48,264,402,-14
1321,1,2022-09-30T19:56:45.824180,569991,-1642,669,-882,-1454,-413,-64,264,402,-14
1322,1,2022-09-30T19:56:45.834651,570000,-1642,669,-882,-1454,-413,-64,264,402,-14
1323,1,2022-09-30T19:56:45.843476,570011,-1635,670,-881,-1448,-434,-58,264,402,-14
1324,1,2022-09-30T19:56:45.849770,570016,-1635,670,-881,-1448,-434,-58,264,402,-14
1325,1,2022-09-30T19:56:45.855209,570023,-1635,670,-881,-1448,-434,-58,264,402,-14
1326,1,2022-09-30T19:56:45.860370,570029,-1627,664,-882,-1445,-366,-62,264,402,-14
1327,1,2022-09-30T19:56:45.867587,570036,-1627,664,-882,-1445,-366,-62,264,402,-14
1328,1,2022-09-30T19:56:45.872608,570041,-1627,664,-882,-1445,-366,-62,264,402,-14
1329,1,2022-09-30T19:56:45.877753,570046,-1627,664,-882,-1445,-366,-62,264,402,-14
1330,1,2022-09-30T19:56:45.882690,570051,-1639,656,-886,-1433,-262,-124,264,402,-14
1331,1,2022-09-30T19:56:45.889139,570057,-1639,656,-886,-1433,-262,-124,264,402,-14
1332,1,2022-09-30T19:56:45.894495,570062,-1639,656,-886,-1433,-262,-124,264,402,-14
1333,1,2022-09-30T19:56:45.901005,570068,-1639,659,-886,-1419,-236,-189,264,402,-14
1334,1,2022-09-30T19:56:45.908136,570076,-1639,659,-886,-1419,-236,-189,264,402,-14
1335,1,2022-09-30T19:56:45.913174,570081,-1639,659,-886,-1419,-236,-189,264,402,-14
1336,1,2022-09-30T19:56:45.919244,570087,-1644,660,-886,-1416,-257,-212,257,405,-9
1337,1,2022-09-30T19:56:45.927232,570095,-1644,660,-886,-1416,-257,-212,257,405,-9
1338,1,2022-09-30T19:56:45.932482,570100,-1644,660,-886,-1416,-257,-212,257,405,-9
1339,1,2022-09-30T19:56:45.938662,570106,-1642,663,-882,-1444,-318,-212,257,405,-9
1340,1,2022-09-30T19:56:45.944907,570113,-1642,663,-882,-1444,-318,-212,257,405,-9
1341,1,2022-09-30T19:56:45.950992,570119,-1642,663,-882,-1444,-318,-212,257,405,-9
1342,1,2022-09-30T19:56:45.956525,570124,-1642,663,-882,-1444,-318,-212,257,405,-9
1343,1,2022-09-30T19:56:45.962308,570130,-1634,663,-881,-1497,-353,-194,257,405,-9
1344,1,2022-09-30T19:56:45.968941,570136,-1634,663,-881,-1497,-353,-194,257,405,-9
1345,1,2022-09-30T19:56:45.974462,570142,-1634,663,-881,-1497,-353,-194,257,405,-9
1346,1,2022-09-30T19:56:45.981282,570148,-1634,663,-881,-1497,-353,-194,257,405,-9
1347,1,2022-09-30T19:56:45.986613,570155,-1634,663,-881,-1497,-353,-194,257,405,-9
1348,1,2022-09-30T19:56:45.992047,570160,-1634,663,-881,-1497,-353,-194,257,405,-9
1349,1,2022-09-30T19:56:45.999038,570166,-1634,663,-881,-1497,-353,-194,257,405,-9
1350,1,2022-09-30T19:56:46.004958,570172,-1650,659,-889,-1598,-255,-138,257,405,-9
1351,1,2022-09-30T19:56:46.013494,570180,-1650,659,-889,-1598,-255,-138,257,405,-9
1352,1,2022-09-30T19:56:46.020399,570187,-1657,659,-891,-1634,-272,-93,257,405,-9
1353,1,2022-09-30T19:56:46.027480,570194,-1657,659,-891,-1634,-272,-93,257,405,-9
1354,1,2022-09-30T19:56:46.033946,570201,-1657,659,-891,-1634,-272,-93,257,405,-9
1355,1,2022-09-30T19:56:46.041083,570209,-1651,661,-887,-1675,-359,-39,263,407,-33
1356,1,2022-09-30T19:56:46.049665,570216,-1651,661,-887,-1675,-359,-39,263,407,-33
1357,1,2022-09-30T19:56:46.057986,570223,-1651,661,-887,-1675,-359,-39,263,407,-33
1358,1,2022-09-30T19:56:46.066201,570232,-1634,662,-883,-1699,-449,2,263,407,-33
1359,1,2022-09-30T19:56:46.074580,570242,-1634,662,-883,-1699,-449,2,263,407,-33
1360,1,2022-09-30T19:56:46.082240,570249,-1636,663,-886,-1710,-472,7,263,407,-33
1361,1,2022-09-30T19:56:46.089665,570256,-1636,663,-886,-1710,-472,7,263,407,-33
1362,1,2022-09-30T19:56:46.095316,570263,-1636,663,-886,-1710,-472,7,263,407,-33
1363,1,2022-09-30T19:56:46.103229,570270,-1623,662,-886,-1711,-473,-36,263,407,-33
1364,1,2022-09-30T19:56:46.112099,570278,-1623,662,-886,-1711,-473,-36,263,407,-33
1365,1,2022-09-30T19:56:46.119892,570287,-1623,662,-886,-1711,-473,-36,263,407,-33
1366,1,2022-09-30T19:56:46.127135,570294,-1623,662,-881,-1703,-368,-130,263,407,-33
1367,1,2022-09-30T19:56:46.135792,570301,-1623,662,-881,-1703,-368,-130,263,407,-33
1368,1,2022-09-30T19:56:46.143415,570310,-1644,658,-884,-1705,-267,-210,263,407,-33
1369,1,2022-09-30T19:56:46.151741,570318,-1644,658,-884,-1705,-267,-210,263,407,-33
1370,1,2022-09-30T19:56:46.159617,570326,-1644,658,-884,-1705,-267,-210,263,407,-33
1371,1,2022-09-30T19:56:46.166506,570333,-1654,661,-884,-1719,-284,-222,265,405,-23
1372,1,2022-09-30T19:56:46.175504,570342,-1654,661,-884,-1719,-284,-222,265,405,-23
1373,1,2022-09-30T19:56:46.184033,570350,-1642,660,-884,-1744,-340,-162,265,405,-23
1374,1,2022-09-30T19:56:46.193719,570359,-1642,660,-884,-1744,-340,-162,265,405,-23
1375,1,2022-09-30T19:56:46.201703,570369,-1642,658,-885,-1744,-372,-100,265,405,-23
1376,1,2022-09-30T19:56:46.209624,570376,-1642,658,-885,-1744,-372,-100,265,405,-23
1377,1,2022-09-30T19:56:46.216428,570383,-1642,658,-885,-1744,-372,-100,265,405,-23
1378,1,2022-09-30T19:56:46.224591,570391,-1639,655,-882,-1724,-356,-51,265,405,-23
1379,1,2022-09-30T19:56:46.234267,570399,-1639,655,-882,-1724,-356,-51,265,405,-23
1380,1,2022-09-30T19:56:46.242080,570408,-1642,655,-881,-1691,-329,-37,265,405,-23
1381,1,2022-09-30T19:56:46.250060,570417,-1642,655,-881,-1691,-329,-37,265,405,-23
1382,1,2022-09-30T19:56:46.258362,570424,-1642,655,-881,-1691,-329,-37,265,405,-23
1383,1,2022-09-30T19:56:46.265678,570433,-1639,662,-885,-1676,-318,-42,265,405,-23
1384,1,2022-09-30T19:56:46.274600,570441,-1639,662,-885,-1676,-318,-42,265,405,-23
1385,1,2022-09-30T19:56:46.283216,570448,-1637,663,-883,-1686,-295,-33,265,405,-23
1386,1,2022-09-30T19:56:46.292083,570459,-1637,663,-883,-1686,-295,-33,265,405,-23
1387,1,2022-09-30T19:56:46.298812,570465,-1637,663,-883,-1686,-295,-33,265,405,-23
1388,1,2022-09-30T19:56:46.307083,570473,-1633,665,-884,-1705,-246,-33,261,401,-17
1389,1,2022-09-30T19:56:46.315131,570481,-1633,665,-884,-1705,-246,-33,261,401,-17
1390,1,2022-09-30T19:56:46.322832,570489,-1634,658,-890,-1719,-221,-38,261,401,-17
1391,1,2022-09-30T19:56:46.332040,570498,-1634,658,-890,-1719,-221,-38,261,401,-17
1392,1,2022-09-30T19:56:46.338964,570505,-1634,658,-890,-1719,-221,-38,261,401,-17
1393,1,2022-09-30T19:56:46.347406,570513,-1635,663,-894,-1709,-218,-60,261,401,-17
1394,1,2022-09-30T19:56:46.356046,570522,-1635,663,-894,-1709,-218,-60,261,401,-17
1395,1,2022-09-30T19:56:46.364561,570530,-1640,663,-897,-1698,-228,-77,261,401,-17
1396,1,2022-09-30T19:56:46.370975,570537,-1640,663,-897,-1698,-228,-77,261,401,-17
1397,1,2022-09-30T19:56:46.376642,570545,-1640,663,-897,-1698,-228,-77,261,401,-17
1398,1,2022-09-30T19:56:46.387911,570554,-1652,664,-897,-1684,-277,-80,261,401,-17
1399,1,2022-09-30T19:56:46.396662,570563,-1652,664,-897,-1684,-277,-80,261,401,-17
1400,1,2022-09-30T19:56:46.404961,570571,-1646,669,-898,-1701,-350,-50,261,401,-17
1401,1,2022-09-30T19:56:46.414039,570580,-1646,669,-898,-1701,-350,-50,261,401,-17
1402,1,2022-09-30T19:56:46.421585,570589,-1636,670,-889,-1723,-399,-28,263,399,-21
1403,1,2022-09-30T19:56:46.430807,570597,-1636,670,-889,-1723,-399,-28,263,399,-21
1404,1,2022-09-30T19:56:46.436818,570604,-1636,670,-889,-1723,-399,-28,263,399,-21
1405,1,2022-09-30T19:56:46.443185,570610,-1630,670,-887,-1748,-391,-31,263,399,-21
1406,1,2022-09-30T19:56:46.450647,570617,-1630,670,-887,-1748,-391,-31,263,399,-21
1407,1,2022-09-30T19:56:46.456119,570624,-1630,670,-887,-1748,-391,-31,263,399,-21
1408,1,2022-09-30T19:56:46.464791,570631,-1632,668,-890,-1743,-350,-70,263,399,-21
1409,1,2022-09-30T19:56:46.471714,570639,-1632,668,-890,-1743,-350,-70,263,399,-21
1410,1,2022-09-30T19:56:46.479472,570646,-1632,668,-890,-1743,-350,-70,263,399,-21
1411,1,2022-09-30T19:56:46.486871,570652,-1639,666,-887,-1746,-302,-94,263,399,-21
1412,1,2022-09-30T19:56:46.494588,570660,-1639,666,-887,-1746,-302,-94,263,399,-21
1413,1,2022-09-30T19:56:46.502379,570669,-1652,665,-889,-1731,-326,-92,263,399,-21
1414,1,2022-09-30T19:56:46.511072,570678,-1652,665,-889,-1731,-326,-92,263,399,-21
1415,1,2022-09-30T19:56:46.517504,570684,-1652,665,-889,-1731,-326,-92,263,399,-21
1416,1,2022-09-30T19:56:46.525631,570692,-1636,661,-889,-1708,-412,-87,263,399,-21
1417,1,2022-09-30T19:56:46.532424,570699,-1636,661,-889,-1708,-412,-87,263,399,-21
1418,1,2022-09-30T19:56:46.540190,570706,-1636,661,-889,-1708,-412,-87,263,399,-21
1419,1,2022-09-30T19:56:46.546718,570714,-1638,664,-880,-1695,-424,-129,265,399,-25
1420,1,2022-09-30T19:56:46.555374,570722,-1638,664,-880,-1695,-424,-129,265,399,-25
1421,1,2022-09-30T19:56:46.561992,570729,-1644,668,-880,-1690,-435,-155,265,399,-25
1422,1,2022-09-30T19:56:46.569992,570736,-1644,668,-880,-1690,-435,-155,265,399,-25
1423,1,2022-09-30T19:56:46.576302,570743,-1644,668,-880,-1690,-435,-155,265,399,-25
1424,1,2022-09-30T19:56:46.584695,570750,-1628,667,-883,-1698,-411,-128,265,399,-25
1425,1,2022-09-30T19:56:46.592617,570759,-1628,667,-883,-1698,-411,-128,265,399,-25
1426,1,2022-09-30T19:56:46.599522,570766,-1628,667,-883,-1698,-411,-128,265,399,-25
1427,1,2022-09-30T19:56:46.608295,570774,-1630,658,-885,-1686,-310,-137,265,399,-25
1428,1,2022-09-30T19:56:46.616100,570782,-1630,658,-885,-1686,-310,-137,265,399,-25
1429,1,2022-09-30T19:56:46.623710,570790,-1648,660,-886,-1665,-254,-179,265,399,-25
1430,1,2022-09-30T19:56:46.632023,570798,-1648,660,-886,-1665,-254,-179,265,399,-25
1431,1,2022-09-30T19:56:46.638775,570805,-1648,660,-886,-1665,-254,-179,265,399,-25
1432,1,2022-09-30T19:56:46.646769,570813,-1646,661,-888,-1666,-321,-179,265,399,-25
1433,1,2022-09-30T19:56:46.656094,570822,-1646,661,-888,-1666,-321,-179,265,399,-25
1434,1,2022-09-30T19:56:46.664196,570830,-1645,659,-887,-1696,-385,-158,264,406,-20
1435,1,2022-09-30T19:56:46.672893,570840,-1645,659,-887,-1696,-385,-158,264,406,-20
1436,1,2022-09-30T19:56:46.680509,570847,-1645,659,-887,-1696,-385,-158,264,406,-20
1437,1,2022-09-30T19:56:46.687565,570854,-1636,660,-885,-1721,-417,-158,264,406,-20
1438,1,2022-09-30T19:56:46.696562,570863,-1636,660,-885,-1721,-417,-158,264,406,-20
1439,1,2022-09-30T19:56:46.704466,570871,-1630,662,-889,-1772,-388,-148,264,406,-20
1440,1,2022-09-30T19:56:46.713588,570881,-1630,662,-889,-1772,-388,-148,264,406,-20
1441,1,2022-09-30T19:56:46.720634,570888,-1641,664,-878,-1805,-320,-130,264,406,-20
1442,1,2022-09-30T19:56:46.728820,570895,-1641,664,-878,-1805,-320,-130,264,406,-20
1443,1,2022-09-30T19:56:46.735308,570902,-1641,664,-878,-1805,-320,-130,264,406,-20
1444,1,2022-09-30T19:56:46.743752,570909,-1636,657,-886,-1817,-316,-76,264,406,-20
1445,1,2022-09-30T19:56:46.752863,570919,-1636,657,-886,-1817,-316,-76,264,406,-20
1446,1,2022-09-30T19:56:46.759382,570926,-1636,657,-886,-1817,-316,-76,264,406,-20
1447,1,2022-09-30T19:56:46.764945,570933,-1633,653,-890,-1785,-301,-36,264,406,-20
1448,1,2022-09-30T19:56:46.770694,570938,-1633,653,-890,-1785,-301,-36,264,406,-20
1449,1,2022-09-30T19:56:46.778145,570944,-1633,653,-890,-1785,-301,-36,264,406,-20
1450,1,2022-09-30T19:56:46.786196,570952,-1643,657,-889,-1712,-273,-50,264,406,-20
1451,1,2022-09-30T19:56:46.795396,570961,-1643,657,-889,-1712,-273,-50,264,406,-20
1452,1,2022-09-30T19:56:46.803236,570970,-1655,665,-886,-1681,-289,-75,265,407,-21
1453,1,2022-09-30T19:56:46.812121,570979,-1655,665,-886,-1681,-289,-75,265,407,-21
1454,1,2022-09-30T19:56:46.818926,570985,-1655,665,-886,-1681,-289,-75,265,407,-21
1455,1,2022-09-30T19:56:46.827341,570993,-1638,670,-887,-1704,-355,-76,265,407,-21
1456,1,2022-09-30T19:56:46.835649,571001,-1638,670,-887,-1704,-355,-76,265,407,-21
1457,1,2022-09-30T19:56:46.843650,571010,-1631,666,-885,-1697,-360,-49,265,407,-21
