,imu,server_time,arduino_time,ax,ay,az,gx,gy,gz,mx,my,mz
0,0,2022-09-30T20:56:59.957058,4184429,-275,2101,193,-1040,-460,-340,-99,285,-289
1,0,2022-09-30T20:56:59.968284,4184440,-275,2101,193,-1040,-460,-340,-99,285,-289
2,0,2022-09-30T20:56:59.974370,4184448,-282,2107,192,-1011,-479,-319,-99,285,-289
3,0,2022-09-30T20:56:59.980315,4184453,-282,2107,192,-1011,-479,-319,-99,285,-289
4,0,2022-09-30T20:56:59.985871,4184459,-282,2107,192,-1011,-479,-319,-99,285,-289
5,0,2022-09-30T20:56:59.992244,4184465,-286,2110,194,-1031,-535,-266,-99,285,-289
6,0,2022-09-30T20:56:59.999992,4184473,-286,2110,194,-1031,-535,-266,-99,285,-289
7,0,2022-09-30T20:57:00.005977,4184478,-286,2110,194,-1031,-535,-266,-99,285,-289
8,0,2022-09-30T20:57:00.012149,4184484,-274,2111,194,-1047,-596,-237,-92,285,-289
9,0,2022-09-30T20:57:00.020186,4184493,-274,2111,194,-1047,-596,-237,-92,286,-286
10,0,2022-09-30T20:57:00.028961,4184501,-274,2111,194,-1047,-596,-237,-92,286,-286
11,0,2022-09-30T20:57:00.035804,4184508,-256,2102,192,-1073,-589,-256,-92,286,-286
12,0,2022-09-30T20:57:00.042133,4184514,-256,2102,192,-1073,-589,-256,-92,286,-286
13,0,2022-09-30T20:57:00.051006,4184521,-256,2102,192,-1073,-589,-256,-92,286,-286
14,0,2022-09-30T20:57:00.056107,4184529,-271,2104,195,-1069,-514,-309,-92,286,-286
15,0,2022-09-30T20:57:00.062594,4184536,-271,2104,195,-1069,-514,-309,-92,286,-286
16,0,2022-09-30T20:57:00.069418,4184543,-271,2104,195,-1069,-514,-309,-92,286,-286
17,0,2022-09-30T20:57:00.074947,4184548,-281,2110,170,-981,-524,-323,-92,286,-286
18,0,2022-09-30T20:57:00.081568,4184555,-281,2110,170,-981,-524,-323,-92,286,-286
19,0,2022-09-30T20:57:00.087198,4184560,-281,2110,170,-981,-524,-323,-92,286,-286
20,0,2022-09-30T20:57:00.093154,4184566,-257,2102,185,-1069,-490,-281,-92,286,-286
21,0,2022-09-30T20:57:00.098866,4184572,-257,2102,185,-1069,-490,-281,-92,286,-286
22,0,2022-09-30T20:57:00.104135,4184578,-257,2102,185,-1069,-490,-281,-92,286,-286
23,0,2022-09-30T20:57:00.109301,4184583,-257,2102,185,-1069,-490,-281,-92,286,-286
24,0,2022-09-30T20:57:00.115151,4184588,-259,2104,179,-991,-469,-284,-92,286,-286
25,0,2022-09-30T20:57:00.123253,4184596,-259,2104,179,-991,-469,-284,-92,286,-286
26,0,2022-09-30T20:57:00.128882,4184602,-259,2104,179,-991,-469,-284,-92,286,-286
27,0,2022-09-30T20:57:00.134213,4184607,-288,2120,188,-962,-394,-349,-92,286,-286
28,0,2022-09-30T20:57:00.141604,4184614,-288,2120,188,-962,-394,-349,-92,286,-286
29,0,2022-09-30T20:57:00.148194,4184621,-288,2120,188,-962,-394,-349,-92,286,-286
30,0,2022-09-30T20:57:00.153307,4184627,-288,2120,188,-962,-394,-349,-99,291,-283
31,0,2022-09-30T20:57:00.158837,4184632,-288,2120,188,-962,-394,-349,-99,291,-283
32,0,2022-09-30T20:57:00.164553,4184637,-288,2120,188,-962,-394,-349,-99,291,-283
33,0,2022-09-30T20:57:00.171108,4184644,-288,2120,188,-962,-394,-349,-99,291,-283
34,0,2022-09-30T20:57:00.176722,4184650,-263,2109,185,-942,-481,-280,-99,291,-283
35,0,2022-09-30T20:57:00.184195,4184657,-263,2109,185,-942,-481,-280,-99,291,-283
36,0,2022-09-30T20:57:00.189725,4184663,-263,2109,185,-942,-481,-280,-99,291,-283
37,0,2022-09-30T20:57:00.203667,4184677,-271,2105,169,-964,-477,-275,-99,291,-283
38,0,2022-09-30T20:57:00.209354,4184682,-271,2105,169,-964,-477,-275,-99,291,-283
39,0,2022-09-30T20:57:00.214785,4184688,-278,2096,183,-1030,-428,-354,-99,291,-283
40,0,2022-09-30T20:57:00.220794,4184693,-278,2096,183,-1030,-428,-354,-99,291,-283
41,0,2022-09-30T20:57:00.226442,4184699,-278,2096,183,-1030,-428,-354,-99,291,-283
42,0,2022-09-30T20:57:00.231862,4184706,-292,2109,182,-946,-432,-348,-99,291,-283
43,0,2022-09-30T20:57:00.239271,4184713,-292,2109,182,-946,-432,-348,-99,291,-283
44,0,2022-09-30T20:57:00.247601,4184721,-292,2109,182,-946,-432,-348,-99,291,-283
45,0,2022-09-30T20:57:00.252810,4184726,-292,2117,188,-906,-490,-311,-99,291,-283
46,0,2022-09-30T20:57:00.259622,4184732,-292,2117,188,-906,-490,-311,-99,291,-283
47,0,2022-09-30T20:57:00.265636,4184738,-292,2117,188,-906,-490,-311,-99,291,-283
48,0,2022-09-30T20:57:00.271263,4184744,-292,2117,188,-906,-490,-311,-99,291,-283
49,0,2022-09-30T20:57:00.276702,4184750,-275,2098,190,-1013,-532,-278,-92,290,-294
50,0,2022-09-30T20:57:00.283141,4184757,-275,2098,190,-1013,-532,-278,-92,290,-294
51,0,2022-09-30T20:57:00.288704,4184762,-275,2098,190,-1013,-532,-278,-92,290,-294
52,0,2022-09-30T20:57:00.294919,4184768,-286,2093,203,-1017,-475,-355,-92,290,-294
53,0,2022-09-30T20:57:00.302449,4184775,-286,2093,203,-1017,-475,-355,-92,290,-294
54,0,2022-09-30T20:57:00.308235,4184781,-286,2093,203,-1017,-475,-355,-92,290,-294
55,0,2022-09-30T20:57:00.313538,4184786,-313,2116,193,-934,-474,-379,-92,290,-294
56,0,2022-09-30T20:57:00.319928,4184793,-313,2116,193,-934,-474,-379,-92,290,-294
57,0,2022-09-30T20:57:00.325653,4184799,-313,2116,193,-934,-474,-379,-92,290,-294
58,0,2022-09-30T20:57:00.331210,4184804,-313,2116,193,-934,-474,-379,-92,290,-294
59,0,2022-09-30T20:57:00.336583,4184810,-292,2117,184,-949,-588,-304,-92,290,-294
60,0,2022-09-30T20:57:00.345147,4184818,-292,2117,184,-949,-588,-304,-92,290,-294
61,0,2022-09-30T20:57:00.350413,4184823,-292,2117,184,-949,-588,-304,-92,290,-294
62,0,2022-09-30T20:57:00.355757,4184829,-278,2117,180,-954,-618,-297,-92,290,-294
63,0,2022-09-30T20:57:00.362375,4184836,-278,2117,180,-954,-618,-297,-92,290,-294
64,0,2022-09-30T20:57:00.368620,4184841,-278,2117,180,-954,-618,-297,-92,290,-294
65,0,2022-09-30T20:57:00.374184,4184847,-277,2106,160,-931,-559,-339,-92,290,-294
66,0,2022-09-30T20:57:00.380529,4184854,-277,2106,160,-931,-559,-339,-92,290,-294
67,0,2022-09-30T20:57:00.390555,4184862,-277,2106,160,-931,-559,-339,-92,290,-294
68,0,2022-09-30T20:57:00.398660,4184871,-262,2103,169,-986,-526,-339,-92,290,-294
69,0,2022-09-30T20:57:00.408762,4184882,-262,2103,169,-986,-526,-339,-92,290,-294
70,0,2022-09-30T20:57:00.415744,4184889,-265,2103,171,-937,-498,-298,-99,285,-287
71,0,2022-09-30T20:57:00.424482,4184897,-265,2103,171,-937,-498,-298,-99,285,-287
72,0,2022-09-30T20:57:00.432294,4184905,-294,2111,174,-907,-511,-294,-99,285,-287
73,0,2022-09-30T20:57:00.440393,4184913,-294,2111,174,-907,-511,-294,-99,285,-287
74,0,2022-09-30T20:57:00.449202,4184922,-294,2111,174,-907,-511,-294,-99,285,-287
75,0,2022-09-30T20:57:00.455633,4184929,-299,2116,174,-950,-606,-266,-99,285,-287
76,0,2022-09-30T20:57:00.462849,4184936,-299,2116,174,-950,-606,-266,-99,285,-287
77,0,2022-09-30T20:57:00.470360,4184942,-299,2116,174,-950,-606,-266,-99,285,-287
78,0,2022-09-30T20:57:00.476715,4184950,-293,2115,174,-1008,-632,-247,-99,285,-287
79,0,2022-09-30T20:57:00.485794,4184958,-293,2115,174,-1008,-632,-247,-99,285,-287
80,0,2022-09-30T20:57:00.492148,4184965,-293,2115,174,-1008,-632,-247,-99,285,-287
81,0,2022-09-30T20:57:00.498635,4184972,-288,2107,176,-1001,-623,-252,-99,285,-287
82,0,2022-09-30T20:57:00.504722,4184978,-288,2107,176,-1001,-623,-252,-99,285,-287
83,0,2022-09-30T20:57:00.510645,4184984,-288,2107,176,-1001,-623,-252,-99,285,-287
84,0,2022-09-30T20:57:00.517137,4184989,-283,2103,180,-1022,-623,-274,-99,285,-287
85,0,2022-09-30T20:57:00.523704,4184996,-283,2103,180,-1022,-623,-274,-99,285,-287
86,0,2022-09-30T20:57:00.529422,4185003,-283,2103,180,-1022,-623,-274,-99,285,-287
87,0,2022-09-30T20:57:00.535622,4185009,-272,2107,192,-1038,-646,-254,-96,286,-282
88,0,2022-09-30T20:57:00.543841,4185017,-272,2107,192,-1038,-646,-254,-96,286,-282
89,0,2022-09-30T20:57:00.549963,4185023,-272,2107,192,-1038,-646,-254,-96,286,-282
90,0,2022-09-30T20:57:00.555967,4185029,-281,2109,180,-1019,-689,-249,-96,286,-282
91,0,2022-09-30T20:57:00.562241,4185035,-281,2109,180,-1019,-689,-249,-96,286,-282
92,0,2022-09-30T20:57:00.568245,4185041,-281,2109,180,-1019,-689,-249,-96,286,-282
93,0,2022-09-30T20:57:00.574278,4185048,-285,2109,184,-1059,-692,-267,-96,286,-282
94,0,2022-09-30T20:57:00.580450,4185053,-285,2109,184,-1059,-692,-267,-96,286,-282
95,0,2022-09-30T20:57:00.587010,4185060,-285,2109,184,-1059,-692,-267,-96,286,-282
96,0,2022-09-30T20:57:00.592955,4185066,-271,2109,186,-1008,-759,-270,-96,286,-282
97,0,2022-09-30T20:57:00.598833,4185072,-271,2109,186,-1008,-759,-270,-96,286,-282
98,0,2022-09-30T20:57:00.604886,4185077,-271,2109,186,-1008,-759,-270,-96,286,-282
99,0,2022-09-30T20:57:00.610321,4185083,-271,2109,186,-1008,-759,-270,-96,286,-282
100,0,2022-09-30T20:57:00.615964,4185089,-258,2117,172,-986,-740,-244,-96,286,-282
101,0,2022-09-30T20:57:00.623880,4185097,-258,2117,172,-986,-740,-244,-96,286,-282
102,0,2022-09-30T20:57:00.628934,4185102,-258,2117,172,-986,-740,-244,-96,286,-282
103,0,2022-09-30T20:57:00.634503,4185108,-256,2118,168,-1012,-645,-254,-96,286,-282
104,0,2022-09-30T20:57:00.642603,4185115,-256,2118,168,-1012,-645,-254,-96,286,-282
105,0,2022-09-30T20:57:00.649135,4185122,-256,2118,168,-1012,-645,-254,-96,286,-282
106,0,2022-09-30T20:57:00.655334,4185128,-266,2110,180,-1006,-599,-301,-91,291,-291
107,0,2022-09-30T20:57:00.660750,4185134,-266,2110,180,-1006,-599,-301,-91,291,-291
108,0,2022-09-30T20:57:00.666818,4185139,-266,2110,180,-1006,-599,-301,-91,291,-291
109,0,2022-09-30T20:57:00.672690,4185146,-272,2106,206,-1044,-529,-309,-91,291,-291
110,0,2022-09-30T20:57:00.678435,4185151,-272,2106,206,-1044,-529,-309,-91,291,-291
111,0,2022-09-30T20:57:00.683484,4185156,-272,2106,206,-1044,-529,-309,-91,291,-291
112,0,2022-09-30T20:57:00.688536,4185162,-272,2106,206,-1044,-529,-309,-91,291,-291
113,0,2022-09-30T20:57:00.694531,4185167,-259,2106,186,-958,-655,-251,-91,291,-291
114,0,2022-09-30T20:57:00.699648,4185172,-259,2106,186,-958,-655,-251,-91,291,-291
115,0,2022-09-30T20:57:00.705072,4185179,-259,2106,186,-958,-655,-251,-91,291,-291
116,0,2022-09-30T20:57:00.710038,4185184,-259,2106,186,-958,-655,-251,-91,291,-291
117,0,2022-09-30T20:57:00.715466,4185189,-268,2102,170,-971,-695,-280,-91,291,-291
118,0,2022-09-30T20:57:00.721083,4185194,-268,2102,170,-971,-695,-280,-91,291,-291
119,0,2022-09-30T20:57:00.726416,4185199,-268,2102,170,-971,-695,-280,-91,291,-291
120,0,2022-09-30T20:57:00.731684,4185205,-268,2102,170,-971,-695,-280,-91,291,-291
121,0,2022-09-30T20:57:00.736771,4185210,-278,2093,198,-1107,-578,-366,-91,291,-291
122,0,2022-09-30T20:57:00.742727,4185216,-278,2093,198,-1107,-578,-366,-91,291,-291
123,0,2022-09-30T20:57:00.748356,4185222,-278,2093,198,-1107,-578,-366,-91,291,-291
124,0,2022-09-30T20:57:00.753646,4185227,-297,2117,163,-832,-757,-370,-91,291,-291
125,0,2022-09-30T20:57:00.760966,4185234,-297,2117,163,-832,-757,-370,-91,291,-291
126,0,2022-09-30T20:57:00.768077,4185241,-297,2117,163,-832,-757,-370,-91,291,-291
127,0,2022-09-30T20:57:00.773363,4185246,-295,2119,170,-1005,-891,-297,-91,291,-291
128,0,2022-09-30T20:57:00.779753,4185253,-295,2119,170,-1005,-891,-297,-91,291,-291
129,0,2022-09-30T20:57:00.785783,4185260,-295,2119,170,-1005,-891,-297,-91,291,-291
130,0,2022-09-30T20:57:00.791989,4185265,-295,2119,170,-1005,-891,-297,-91,291,-291
131,0,2022-09-30T20:57:00.797710,4185271,-270,2104,179,-1095,-977,-227,-93,297,-285
132,0,2022-09-30T20:57:00.806027,4185279,-270,2104,179,-1095,-977,-227,-93,297,-285
133,0,2022-09-30T20:57:00.811287,4185284,-270,2104,179,-1095,-977,-227,-93,297,-285
134,0,2022-09-30T20:57:00.817171,4185290,-262,2106,166,-1107,-970,-252,-93,297,-285
135,0,2022-09-30T20:57:00.824847,4185298,-262,2106,166,-1107,-970,-252,-93,297,-285
136,0,2022-09-30T20:57:00.830092,4185304,-262,2106,166,-1107,-970,-252,-93,297,-285
137,0,2022-09-30T20:57:00.835404,4185309,-266,2129,147,-1144,-887,-302,-93,297,-285
138,0,2022-09-30T20:57:00.842035,4185315,-266,2129,147,-1144,-887,-302,-93,297,-285
139,0,2022-09-30T20:57:00.847550,4185321,-266,2129,147,-1144,-887,-302,-93,297,-285
140,0,2022-09-30T20:57:00.852754,4185326,-273,2135,157,-1086,-826,-343,-93,297,-285
141,0,2022-09-30T20:57:00.859298,4185332,-273,2135,157,-1086,-826,-343,-93,297,-285
142,0,2022-09-30T20:57:00.864817,4185338,-273,2135,157,-1086,-826,-343,-93,297,-285
143,0,2022-09-30T20:57:00.870526,4185344,-273,2135,157,-1086,-826,-343,-93,297,-285
144,0,2022-09-30T20:57:00.875707,4185350,-271,2106,178,-1174,-806,-387,-93,297,-285
145,0,2022-09-30T20:57:00.881906,4185356,-271,2106,178,-1174,-806,-387,-93,297,-285
146,0,2022-09-30T20:57:00.888478,4185362,-271,2106,178,-1174,-806,-387,-93,297,-285
147,0,2022-09-30T20:57:00.895584,4185367,-260,2094,206,-1197,-858,-408,-93,297,-285
148,0,2022-09-30T20:57:00.900416,4185374,-260,2094,206,-1197,-858,-408,-93,297,-285
149,0,2022-09-30T20:57:00.905843,4185379,-260,2094,206,-1197,-858,-408,-93,297,-285
150,0,2022-09-30T20:57:00.910815,4185384,-260,2094,206,-1197,-858,-408,-93,297,-285
151,0,2022-09-30T20:57:00.916663,4185390,-274,2114,201,-1050,-812,-390,-95,285,-283
152,0,2022-09-30T20:57:00.922196,4185396,-274,2114,201,-1050,-812,-390,-95,285,-283
153,0,2022-09-30T20:57:00.927510,4185401,-274,2114,201,-1050,-812,-390,-95,285,-283
154,0,2022-09-30T20:57:00.933065,4185406,-274,2109,199,-1063,-776,-389,-95,285,-283
155,0,2022-09-30T20:57:00.939597,4185413,-274,2109,199,-1063,-776,-389,-95,285,-283
156,0,2022-09-30T20:57:00.946659,4185420,-274,2109,199,-1063,-776,-389,-95,285,-283
157,0,2022-09-30T20:57:00.951613,4185425,-274,2109,199,-1063,-776,-389,-95,285,-283
158,0,2022-09-30T20:57:00.956802,4185431,-280,2098,192,-1084,-784,-408,-95,285,-283
159,0,2022-09-30T20:57:00.963964,4185438,-280,2098,192,-1084,-784,-408,-95,285,-283
160,0,2022-09-30T20:57:00.969803,4185443,-280,2098,192,-1084,-784,-408,-95,285,-283
161,0,2022-09-30T20:57:00.974998,4185449,-280,2098,192,-1084,-784,-408,-95,285,-283
162,0,2022-09-30T20:57:00.980542,4185453,-280,2098,192,-1084,-784,-408,-95,285,-283
163,0,2022-09-30T20:57:00.986079,4185459,-280,2098,192,-1084,-784,-408,-95,285,-283
164,0,2022-09-30T20:57:00.992313,4185465,-280,2098,192,-1084,-784,-408,-95,285,-283
165,0,2022-09-30T20:57:00.997948,4185470,-268,2121,180,-977,-910,-449,-95,285,-283
166,0,2022-09-30T20:57:01.004167,4185477,-268,2121,180,-977,-910,-449,-95,285,-283
167,0,2022-09-30T20:57:01.009244,4185483,-268,2121,180,-977,-910,-449,-95,285,-283
168,0,2022-09-30T20:57:01.014985,4185488,-262,2105,180,-1018,-934,-349,-95,285,-283
169,0,2022-09-30T20:57:01.021583,4185494,-262,2105,180,-1018,-934,-349,-95,285,-283
170,0,2022-09-30T20:57:01.027995,4185500,-262,2105,180,-1018,-934,-349,-95,285,-283
171,0,2022-09-30T20:57:01.034066,4185507,-238,2108,187,-1043,-919,-371,-95,285,-283
172,0,2022-09-30T20:57:01.039541,4185512,-238,2108,187,-1043,-919,-371,-95,285,-283
173,0,2022-09-30T20:57:01.045597,4185519,-238,2108,187,-1043,-919,-371,-95,285,-283
174,0,2022-09-30T20:57:01.051616,4185525,-238,2108,187,-1043,-919,-371,-95,285,-283
175,0,2022-09-30T20:57:01.057238,4185531,-269,2111,177,-1050,-905,-438,-89,287,-283
176,0,2022-09-30T20:57:01.062509,4185536,-269,2111,177,-1050,-905,-438,-89,287,-283
177,0,2022-09-30T20:57:01.068884,4185541,-269,2111,177,-1050,-905,-438,-89,287,-283
178,0,2022-09-30T20:57:01.074562,4185547,-283,2122,182,-1053,-852,-458,-89,287,-283
179,0,2022-09-30T20:57:01.080510,4185553,-283,2122,182,-1053,-852,-458,-89,287,-283
180,0,2022-09-30T20:57:01.085964,4185560,-283,2122,182,-1053,-852,-458,-89,287,-283
181,0,2022-09-30T20:57:01.092341,4185565,-283,2122,182,-1053,-852,-458,-89,287,-283
182,0,2022-09-30T20:57:01.098218,4185572,-277,2106,191,-1103,-957,-421,-89,287,-283
183,0,2022-09-30T20:57:01.107406,4185580,-277,2106,191,-1103,-957,-421,-89,287,-283
184,0,2022-09-30T20:57:01.112837,4185586,-265,2106,188,-1107,-1057,-462,-89,287,-283
185,0,2022-09-30T20:57:01.118691,4185591,-265,2106,188,-1107,-1057,-462,-89,287,-283
186,0,2022-09-30T20:57:01.124788,4185597,-265,2106,188,-1107,-1057,-462,-89,287,-283
187,0,2022-09-30T20:57:01.129965,4185604,-265,2106,188,-1107,-1057,-462,-89,287,-283
188,0,2022-09-30T20:57:01.135282,4185609,-277,2098,184,-1106,-1072,-488,-89,287,-283
189,0,2022-09-30T20:57:01.143102,4185616,-277,2098,184,-1106,-1072,-488,-89,287,-283
190,0,2022-09-30T20:57:01.149147,4185622,-277,2098,184,-1106,-1072,-488,-89,287,-283
191,0,2022-09-30T20:57:01.155232,4185628,-267,2096,183,-1150,-1085,-454,-89,287,-283
192,0,2022-09-30T20:57:01.160461,4185633,-267,2096,183,-1150,-1085,-454,-89,287,-283
193,0,2022-09-30T20:57:01.166977,4185639,-267,2096,183,-1150,-1085,-454,-89,287,-283
194,0,2022-09-30T20:57:01.172925,4185646,-262,2116,183,-1038,-1091,-398,-92,286,-283
195,0,2022-09-30T20:57:01.180343,4185654,-262,2116,183,-1038,-1091,-398,-92,286,-278
196,0,2022-09-30T20:57:01.185955,4185659,-262,2116,183,-1038,-1091,-398,-92,286,-278
197,0,2022-09-30T20:57:01.191635,4185664,-262,2116,183,-1038,-1091,-398,-92,286,-278
198,0,2022-09-30T20:57:01.197224,4185670,-259,2109,178,-1098,-1042,-411,-92,286,-278
199,0,2022-09-30T20:57:01.202483,4185675,-259,2109,178,-1098,-1042,-411,-92,286,-278
200,0,2022-09-30T20:57:01.207558,4185680,-259,2109,178,-1098,-1042,-411,-92,286,-278
201,0,2022-09-30T20:57:01.213972,4185687,-246,2105,187,-1077,-967,-449,-92,286,-278
202,0,2022-09-30T20:57:01.219216,4185693,-246,2105,187,-1077,-967,-449,-92,286,-278
203,0,2022-09-30T20:57:01.228202,4185701,-246,2105,187,-1077,-967,-449,-92,286,-278
204,0,2022-09-30T20:57:01.233698,4185707,-244,2107,184,-1044,-864,-520,-92,286,-278
205,0,2022-09-30T20:57:01.239284,4185712,-244,2107,184,-1044,-864,-520,-92,286,-278
206,0,2022-09-30T20:57:01.245049,4185718,-244,2107,184,-1044,-864,-520,-92,286,-278
207,0,2022-09-30T20:57:01.250554,4185723,-244,2107,184,-1044,-864,-520,-92,286,-278
208,0,2022-09-30T20:57:01.255643,4185730,-252,2106,166,-965,-788,-501,-92,286,-278
209,0,2022-09-30T20:57:01.260716,4185734,-252,2106,166,-965,-788,-501,-92,286,-278
210,0,2022-09-30T20:57:01.265815,4185739,-252,2106,166,-965,-788,-501,-92,286,-278
211,0,2022-09-30T20:57:01.271796,4185745,-252,2106,166,-965,-788,-501,-92,286,-278
212,0,2022-09-30T20:57:01.276748,4185750,-252,2105,182,-1033,-657,-516,-92,286,-278
213,0,2022-09-30T20:57:01.282875,4185755,-252,2105,182,-1033,-657,-516,-92,286,-278
214,0,2022-09-30T20:57:01.287680,4185761,-252,2105,182,-1033,-657,-516,-92,286,-278
215,0,2022-09-30T20:57:01.293358,4185766,-275,2106,195,-1030,-587,-526,-92,286,-278
216,0,2022-09-30T20:57:01.300478,4185774,-275,2106,195,-1030,-587,-526,-92,286,-278
217,0,2022-09-30T20:57:01.307275,4185781,-275,2106,195,-1030,-587,-526,-92,286,-278
218,0,2022-09-30T20:57:01.312250,4185786,-275,2106,195,-1030,-587,-526,-92,286,-278
219,0,2022-09-30T20:57:01.317632,4185791,-302,2124,180,-883,-595,-465,-98,286,-280
220,0,2022-09-30T20:57:01.325356,4185798,-302,2124,180,-883,-595,-465,-98,286,-280
221,0,2022-09-30T20:57:01.330301,4185804,-302,2124,180,-883,-595,-465,-98,286,-280
222,0,2022-09-30T20:57:01.335289,4185808,-289,2101,205,-1026,-633,-413,-98,286,-280
223,0,2022-09-30T20:57:01.342364,4185816,-289,2101,205,-1026,-633,-413,-98,286,-280
224,0,2022-09-30T20:57:01.349748,4185823,-289,2101,205,-1026,-633,-413,-98,286,-280
225,0,2022-09-30T20:57:01.355159,4185829,-281,2104,203,-999,-754,-438,-98,286,-280
226,0,2022-09-30T20:57:01.360385,4185834,-281,2104,203,-999,-754,-438,-98,286,-280
227,0,2022-09-30T20:57:01.367748,4185840,-281,2104,203,-999,-754,-438,-98,286,-280
228,0,2022-09-30T20:57:01.372680,4185846,-294,2110,187,-967,-856,-359,-98,286,-280
229,0,2022-09-30T20:57:01.378756,4185852,-294,2110,187,-967,-856,-359,-98,286,-280
230,0,2022-09-30T20:57:01.384129,4185858,-294,2110,187,-967,-856,-359,-98,286,-280
231,0,2022-09-30T20:57:01.389322,4185863,-294,2110,187,-967,-856,-359,-98,286,-280
232,0,2022-09-30T20:57:01.395307,4185868,-276,2102,184,-1077,-929,-320,-98,286,-280
233,0,2022-09-30T20:57:01.402040,4185876,-276,2102,184,-1077,-929,-320,-98,286,-280
234,0,2022-09-30T20:57:01.412488,4185885,-276,2102,184,-1077,-929,-320,-98,286,-280
235,0,2022-09-30T20:57:01.426019,4185890,-275,2112,189,-1163,-873,-359,-98,286,-280
236,0,2022-09-30T20:57:01.436369,4185909,-278,2118,188,-1042,-838,-393,-93,279,-283
237,0,2022-09-30T20:57:01.451025,4185924,-278,2118,188,-1042,-838,-393,-93,279,-283
238,0,2022-09-30T20:57:01.461232,4185932,-286,2107,197,-1052,-736,-429,-93,279,-283
239,0,2022-09-30T20:57:01.475609,4185948,-275,2105,213,-992,-759,-345,-93,279,-283
240,0,2022-09-30T20:57:01.484216,4185957,-275,2105,213,-992,-759,-345,-93,279,-283
241,0,2022-09-30T20:57:01.493467,4185964,-275,2105,213,-992,-759,-345,-93,279,-283
242,0,2022-09-30T20:57:01.499207,4185972,-250,2104,214,-1025,-816,-259,-93,279,-283
243,0,2022-09-30T20:57:01.508400,4185981,-250,2104,214,-1025,-816,-259,-93,279,-283
244,0,2022-09-30T20:57:01.513707,4185987,-264,2106,196,-1031,-731,-304,-93,279,-283
245,0,2022-09-30T20:57:01.521460,4185995,-264,2106,196,-1031,-731,-304,-93,279,-283
246,0,2022-09-30T20:57:01.526688,4186000,-264,2106,196,-1031,-731,-304,-93,279,-283
247,0,2022-09-30T20:57:01.531683,4186005,-264,2106,196,-1031,-731,-304,-93,279,-283
248,0,2022-09-30T20:57:01.536657,4186010,-269,2107,189,-1037,-654,-377,-93,279,-283
249,0,2022-09-30T20:57:01.544584,4186016,-269,2107,189,-1037,-654,-377,-93,279,-283
250,0,2022-09-30T20:57:01.551485,4186024,-269,2107,189,-1037,-654,-377,-93,279,-283
251,0,2022-09-30T20:57:01.557101,4186031,-259,2109,170,-992,-672,-315,-97,289,-283
252,0,2022-09-30T20:57:01.562674,4186036,-259,2109,170,-992,-672,-315,-97,289,-283
253,0,2022-09-30T20:57:01.568753,4186042,-259,2109,170,-992,-672,-315,-97,289,-283
254,0,2022-09-30T20:57:01.574117,4186048,-275,2108,184,-915,-658,-286,-97,289,-283
255,0,2022-09-30T20:57:01.580438,4186054,-275,2108,184,-915,-658,-286,-97,289,-283
256,0,2022-09-30T20:57:01.585960,4186059,-275,2108,184,-915,-658,-286,-97,289,-283
257,0,2022-09-30T20:57:01.592166,4186065,-275,2108,184,-915,-658,-286,-97,289,-283
258,0,2022-09-30T20:57:01.598225,4186072,-277,2097,195,-1004,-658,-265,-97,289,-283
259,0,2022-09-30T20:57:01.605257,4186079,-277,2097,195,-1004,-658,-265,-97,289,-283
260,0,2022-09-30T20:57:01.610250,4186084,-277,2097,195,-1004,-658,-265,-97,289,-283
261,0,2022-09-30T20:57:01.616303,4186089,-273,2108,184,-985,-693,-232,-97,289,-283
262,0,2022-09-30T20:57:01.624825,4186098,-273,2108,184,-985,-693,-232,-97,289,-283
263,0,2022-09-30T20:57:01.629739,4186103,-273,2108,184,-985,-693,-232,-97,289,-283
264,0,2022-09-30T20:57:01.634759,4186108,-271,2117,193,-996,-670,-271,-97,289,-283
265,0,2022-09-30T20:57:01.641385,4186115,-271,2117,193,-996,-670,-271,-97,289,-283
266,0,2022-09-30T20:57:01.649529,4186123,-271,2117,193,-996,-670,-271,-97,289,-283
267,0,2022-09-30T20:57:01.654813,4186128,-269,2109,200,-1059,-597,-299,-97,289,-283
268,0,2022-09-30T20:57:01.661267,4186135,-269,2109,200,-1059,-597,-299,-97,289,-283
269,0,2022-09-30T20:57:01.668381,4186141,-269,2109,200,-1059,-597,-299,-97,289,-283
270,0,2022-09-30T20:57:01.673598,4186147,-258,2109,189,-1027,-610,-289,-97,289,-283
271,0,2022-09-30T20:57:01.679873,4186153,-258,2109,189,-1027,-610,-289,-97,289,-283
272,0,2022-09-30T20:57:01.685304,4186159,-258,2109,189,-1027,-610,-289,-97,289,-283
273,0,2022-09-30T20:57:01.690938,4186164,-258,2109,189,-1027,-610,-289,-97,289,-283
274,0,2022-09-30T20:57:01.697083,4186171,-257,2098,186,-1052,-580,-314,-90,288,-286
275,0,2022-09-30T20:57:01.702930,4186176,-257,2098,186,-1052,-580,-314,-90,288,-286
276,0,2022-09-30T20:57:01.708159,4186182,-257,2098,186,-1052,-580,-314,-90,288,-286
277,0,2022-09-30T20:57:01.713268,4186186,-261,2100,192,-1032,-518,-369,-90,288,-286
278,0,2022-09-30T20:57:01.720691,4186193,-261,2100,192,-1032,-518,-369,-90,288,-286
279,0,2022-09-30T20:57:01.726191,4186200,-261,2100,192,-1032,-518,-369,-90,288,-286
280,0,2022-09-30T20:57:01.731228,4186205,-261,2100,192,-1032,-518,-369,-90,288,-286
281,0,2022-09-30T20:57:01.736405,4186210,-278,2109,186,-956,-543,-366,-90,288,-286
282,0,2022-09-30T20:57:01.743233,4186216,-278,2109,186,-956,-543,-366,-90,288,-286
283,0,2022-09-30T20:57:01.748628,4186222,-278,2109,186,-956,-543,-366,-90,288,-286
284,0,2022-09-30T20:57:01.753879,4186227,-280,2112,182,-1004,-600,-338,-90,288,-286
285,0,2022-09-30T20:57:01.760588,4186234,-280,2112,182,-1004,-600,-338,-90,288,-286
286,0,2022-09-30T20:57:01.767624,4186241,-280,2112,182,-1004,-600,-338,-90,288,-286
287,0,2022-09-30T20:57:01.772678,4186247,-280,2112,182,-1004,-600,-338,-90,288,-286
288,0,2022-09-30T20:57:01.777845,4186252,-267,2103,187,-1054,-605,-310,-90,288,-286
289,0,2022-09-30T20:57:01.784844,4186259,-267,2103,187,-1054,-605,-310,-90,288,-286
290,0,2022-09-30T20:57:01.790260,4186263,-267,2103,187,-1054,-605,-310,-90,288,-286
291,0,2022-09-30T20:57:01.796041,4186269,-263,2105,171,-969,-599,-361,-90,288,-286
292,0,2022-09-30T20:57:01.802769,4186276,-263,2105,171,-969,-599,-361,-90,288,-286
293,0,2022-09-30T20:57:01.809242,4186283,-263,2105,171,-969,-599,-361,-90,288,-286
294,0,2022-09-30T20:57:01.814576,4186289,-261,2109,191,-1070,-562,-411,-88,294,-288
295,0,2022-09-30T20:57:01.822316,4186296,-261,2109,191,-1070,-562,-411,-88,294,-288
296,0,2022-09-30T20:57:01.829257,4186303,-261,2109,191,-1070,-562,-411,-88,294,-288
297,0,2022-09-30T20:57:01.834270,4186308,-260,2105,196,-1110,-601,-374,-88,294,-288
298,0,2022-09-30T20:57:01.840777,4186314,-260,2105,196,-1110,-601,-374,-88,294,-288
299,0,2022-09-30T20:57:01.847539,4186321,-260,2105,196,-1110,-601,-374,-88,294,-288
300,0,2022-09-30T20:57:01.853666,4186327,-274,2117,190,-1039,-647,-310,-88,294,-288
301,0,2022-09-30T20:57:01.860179,4186334,-274,2117,190,-1039,-647,-310,-88,294,-288
302,0,2022-09-30T20:57:01.866874,4186340,-274,2117,190,-1039,-647,-310,-88,294,-288
303,0,2022-09-30T20:57:01.873326,4186347,-260,2110,170,-1047,-706,-284,-88,294,-288
304,0,2022-09-30T20:57:01.880381,4186353,-260,2110,170,-1047,-706,-284,-88,294,-288
305,0,2022-09-30T20:57:01.886596,4186360,-260,2110,170,-1047,-706,-284,-88,294,-288
306,0,2022-09-30T20:57:01.892252,4186365,-260,2110,170,-1047,-706,-284,-88,294,-288
307,0,2022-09-30T20:57:01.898368,4186372,-244,2097,183,-1140,-587,-354,-88,294,-288
308,0,2022-09-30T20:57:01.905399,4186379,-244,2097,183,-1140,-587,-354,-88,294,-288
309,0,2022-09-30T20:57:01.910349,4186384,-244,2097,183,-1140,-587,-354,-88,294,-288
310,0,2022-09-30T20:57:01.916473,4186389,-257,2108,191,-1069,-494,-399,-88,294,-288
311,0,2022-09-30T20:57:01.925627,4186399,-257,2108,191,-1069,-494,-399,-88,294,-288
312,0,2022-09-30T20:57:01.932236,4186405,-257,2108,191,-1069,-494,-399,-88,294,-288
313,0,2022-09-30T20:57:01.937640,4186411,-290,2126,184,-901,-501,-394,-88,294,-288
314,0,2022-09-30T20:57:01.945689,4186419,-290,2126,184,-901,-501,-394,-88,294,-288
315,0,2022-09-30T20:57:01.951041,4186425,-290,2126,184,-901,-501,-394,-88,294,-288
316,0,2022-09-30T20:57:01.956120,4186430,-290,2100,208,-1093,-517,-390,-91,287,-293
317,0,2022-09-30T20:57:01.962509,4186436,-290,2100,208,-1093,-517,-390,-91,287,-293
318,0,2022-09-30T20:57:01.968445,4186441,-290,2100,208,-1093,-517,-390,-91,287,-293
319,0,2022-09-30T20:57:01.974822,4186448,-255,2092,210,-1079,-583,-345,-91,287,-293
320,0,2022-09-30T20:57:01.982508,4186456,-255,2092,210,-1079,-583,-345,-91,287,-293
321,0,2022-09-30T20:57:01.990960,4186463,-255,2092,210,-1079,-583,-345,-91,287,-293
322,0,2022-09-30T20:57:01.998376,4186472,-256,2106,170,-923,-623,-349,-91,287,-293
323,0,2022-09-30T20:57:02.006019,4186479,-256,2106,170,-923,-623,-349,-91,287,-293
324,0,2022-09-30T20:57:02.011015,4186484,-256,2106,170,-923,-623,-349,-91,287,-293
325,0,2022-09-30T20:57:02.017942,4186489,-272,2107,190,-1048,-509,-402,-91,287,-293
326,0,2022-09-30T20:57:02.023040,4186497,-272,2107,190,-1048,-509,-402,-91,287,-293
327,0,2022-09-30T20:57:02.028420,4186502,-272,2107,190,-1048,-509,-402,-91,287,-293
328,0,2022-09-30T20:57:02.033948,4186507,-284,2114,196,-1034,-476,-419,-91,287,-293
329,0,2022-09-30T20:57:02.040658,4186514,-284,2114,196,-1034,-476,-419,-91,287,-293
330,0,2022-09-30T20:57:02.047299,4186520,-284,2114,196,-1034,-476,-419,-91,287,-293
331,0,2022-09-30T20:57:02.052544,4186526,-284,2114,196,-1034,-476,-419,-91,287,-293
332,0,2022-09-30T20:57:02.057429,4186531,-290,2116,192,-981,-516,-387,-91,287,-293
333,0,2022-09-30T20:57:02.065698,4186539,-290,2116,192,-981,-516,-387,-91,287,-293
334,0,2022-09-30T20:57:02.071959,4186546,-290,2116,192,-981,-516,-387,-91,287,-293
335,0,2022-09-30T20:57:02.077164,4186551,-281,2108,193,-1048,-568,-373,-92,298,-276
336,0,2022-09-30T20:57:02.084394,4186558,-281,2108,193,-1048,-568,-373,-92,298,-276
337,0,2022-09-30T20:57:02.089549,4186563,-281,2108,193,-1048,-568,-373,-92,298,-276
338,0,2022-09-30T20:57:02.095341,4186568,-277,2099,187,-1088,-544,-378,-92,298,-276
339,0,2022-09-30T20:57:02.101822,4186575,-277,2099,187,-1088,-544,-378,-92,298,-276
340,0,2022-09-30T20:57:02.107969,4186582,-277,2099,187,-1088,-544,-378,-92,298,-276
341,0,2022-09-30T20:57:02.113114,4186587,-277,2099,187,-1088,-544,-378,-92,298,-276
342,0,2022-09-30T20:57:02.118664,4186592,-275,2101,198,-1046,-561,-392,-92,298,-276
343,0,2022-09-30T20:57:02.126882,4186601,-275,2101,198,-1046,-561,-392,-92,298,-276
344,0,2022-09-30T20:57:02.131993,4186605,-275,2101,198,-1046,-561,-392,-92,298,-276
345,0,2022-09-30T20:57:02.137252,4186610,-285,2110,193,-1071,-580,-370,-92,298,-276
346,0,2022-09-30T20:57:02.145691,4186618,-285,2110,193,-1071,-580,-370,-92,298,-276
347,0,2022-09-30T20:57:02.151432,4186625,-285,2110,193,-1071,-580,-370,-92,298,-276
348,0,2022-09-30T20:57:02.156941,4186630,-288,2107,199,-1065,-618,-319,-92,298,-276
349,0,2022-09-30T20:57:02.163553,4186637,-288,2107,199,-1065,-618,-319,-92,298,-276
350,0,2022-09-30T20:57:02.170590,4186643,-288,2107,199,-1065,-618,-319,-92,298,-276
351,0,2022-09-30T20:57:02.176258,4186650,-272,2116,192,-1018,-660,-294,-92,298,-276
352,0,2022-09-30T20:57:02.182417,4186656,-272,2116,192,-1018,-660,-294,-92,298,-276
353,0,2022-09-30T20:57:02.188783,4186662,-272,2116,192,-1018,-660,-294,-92,298,-276
354,0,2022-09-30T20:57:02.194274,4186668,-270,2106,187,-1028,-630,-328,-92,298,-276
355,0,2022-09-30T20:57:02.201063,4186675,-270,2106,187,-1028,-630,-328,-92,298,-276
356,0,2022-09-30T20:57:02.207391,4186681,-270,2106,187,-1028,-630,-328,-92,298,-276
357,0,2022-09-30T20:57:02.212638,4186686,-270,2106,187,-1028,-630,-328,-92,298,-276
358,0,2022-09-30T20:57:02.219057,4186692,-267,2113,183,-1014,-578,-342,-94,288,-278
359,0,2022-09-30T20:57:02.227651,4186701,-267,2113,183,-1014,-578,-342,-94,288,-278
360,0,2022-09-30T20:57:02.232777,4186706,-267,2113,183,-1014,-578,-342,-94,288,-278
361,0,2022-09-30T20:57:02.237968,4186712,-271,2102,179,-1064,-582,-345,-94,288,-278
362,0,2022-09-30T20:57:02.246636,4186720,-271,2102,179,-1064,-582,-345,-94,288,-278
363,0,2022-09-30T20:57:02.251601,4186725,-271,2102,179,-1064,-582,-345,-94,288,-278
364,0,2022-09-30T20:57:02.256806,4186730,-276,2105,186,-1124,-607,-320,-94,288,-278
365,0,2022-09-30T20:57:02.263930,4186737,-276,2105,186,-1124,-607,-320,-94,288,-278
366,0,2022-09-30T20:57:02.270821,4186744,-276,2105,186,-1124,-607,-320,-94,288,-278
367,0,2022-09-30T20:57:02.276626,4186749,-273,2114,180,-1094,-669,-290,-94,288,-278
368,0,2022-09-30T20:57:02.283763,4186757,-273,2114,180,-1094,-669,-290,-94,288,-278
369,0,2022-09-30T20:57:02.290721,4186764,-273,2114,180,-1094,-669,-290,-94,288,-278
370,0,2022-09-30T20:57:02.296168,4186769,-275,2109,203,-1124,-626,-318,-94,288,-278
371,0,2022-09-30T20:57:02.302538,4186776,-275,2109,203,-1124,-626,-318,-94,288,-278
372,0,2022-09-30T20:57:02.309258,4186782,-275,2109,203,-1124,-626,-318,-94,288,-278
373,0,2022-09-30T20:57:02.314232,4186787,-276,2103,197,-993,-577,-351,-94,288,-278
374,0,2022-09-30T20:57:02.321367,4186795,-276,2103,197,-993,-577,-351,-94,288,-278
375,0,2022-09-30T20:57:02.327809,4186802,-276,2103,197,-993,-577,-351,-94,288,-278
376,0,2022-09-30T20:57:02.332922,4186807,-276,2103,197,-993,-577,-351,-94,288,-278
377,0,2022-09-30T20:57:02.337930,4186812,-273,2105,197,-1002,-566,-384,-87,289,-289
378,0,2022-09-30T20:57:02.346141,4186819,-273,2105,197,-1002,-566,-384,-87,289,-289
379,0,2022-09-30T20:57:02.351354,4186825,-273,2105,197,-1002,-566,-384,-87,289,-289
380,0,2022-09-30T20:57:02.356500,4186830,-268,2102,199,-1137,-608,-397,-87,289,-289
381,0,2022-09-30T20:57:02.362611,4186836,-268,2102,199,-1137,-608,-397,-87,289,-289
382,0,2022-09-30T20:57:02.369540,4186843,-268,2102,199,-1137,-608,-397,-87,289,-289
383,0,2022-09-30T20:57:02.375008,4186849,-276,2103,180,-1065,-605,-323,-87,289,-289
384,0,2022-09-30T20:57:02.381332,4186855,-276,2103,180,-1065,-605,-323,-87,289,-289
385,0,2022-09-30T20:57:02.388677,4186861,-276,2103,180,-1065,-605,-323,-87,289,-289
386,0,2022-09-30T20:57:02.395050,4186868,-283,2108,191,-1035,-608,-293,-87,289,-289
387,0,2022-09-30T20:57:02.401378,4186875,-283,2108,191,-1035,-608,-293,-87,289,-289
388,0,2022-09-30T20:57:02.407508,4186882,-283,2108,191,-1035,-608,-293,-87,289,-289
389,0,2022-09-30T20:57:02.412947,4186887,-283,2108,191,-1035,-608,-293,-87,289,-289
390,0,2022-09-30T20:57:02.418698,4186892,-279,2108,198,-1030,-637,-307,-87,289,-289
391,0,2022-09-30T20:57:02.426856,4186900,-279,2108,198,-1030,-637,-307,-87,289,-289
392,0,2022-09-30T20:57:02.432110,4186906,-279,2108,198,-1030,-637,-307,-87,289,-289
393,0,2022-09-30T20:57:02.436961,4186910,-269,2098,199,-993,-638,-345,-87,289,-289
394,0,2022-09-30T20:57:02.445740,4186918,-269,2098,199,-993,-638,-345,-87,289,-289
395,0,2022-09-30T20:57:02.451002,4186925,-269,2098,199,-993,-638,-345,-87,289,-289
396,0,2022-09-30T20:57:02.455946,4186930,-269,2098,199,-993,-638,-345,-83,297,-277
397,0,2022-09-30T20:57:02.461068,4186935,-269,2098,199,-993,-638,-345,-83,297,-277
398,0,2022-09-30T20:57:02.468012,4186941,-269,2098,199,-993,-638,-345,-83,297,-277
399,0,2022-09-30T20:57:02.473764,4186947,-269,2098,199,-993,-638,-345,-83,297,-277
400,0,2022-09-30T20:57:02.478678,4186952,-277,2107,184,-1000,-625,-421,-83,297,-277
401,0,2022-09-30T20:57:02.486620,4186960,-277,2107,184,-1000,-625,-421,-83,297,-277
402,0,2022-09-30T20:57:02.492789,4186966,-277,2107,184,-1000,-625,-421,-83,297,-277
403,0,2022-09-30T20:57:02.498713,4186972,-281,2109,190,-1112,-695,-376,-83,297,-277
404,0,2022-09-30T20:57:02.505994,4186980,-281,2109,190,-1112,-695,-376,-83,297,-277
405,0,2022-09-30T20:57:02.511203,4186985,-281,2109,190,-1112,-695,-376,-83,297,-277
406,0,2022-09-30T20:57:02.516818,4186990,-276,2106,197,-1109,-719,-312,-83,297,-277
407,0,2022-09-30T20:57:02.525420,4186999,-276,2106,197,-1109,-719,-312,-83,297,-277
408,0,2022-09-30T20:57:02.531619,4187005,-276,2106,197,-1109,-719,-312,-83,297,-277
409,0,2022-09-30T20:57:02.536757,4187011,-271,2111,194,-1013,-669,-319,-83,297,-277
410,0,2022-09-30T20:57:02.543833,4187017,-271,2111,194,-1013,-669,-319,-83,297,-277
411,0,2022-09-30T20:57:02.551073,4187024,-271,2111,194,-1013,-669,-319,-83,297,-277
412,0,2022-09-30T20:57:02.556870,4187030,-270,2119,191,-982,-641,-300,-83,297,-277
413,0,2022-09-30T20:57:02.568939,4187040,-270,2119,191,-982,-641,-300,-83,297,-277
414,0,2022-09-30T20:57:02.575535,4187048,-272,2103,198,-1053,-637,-330,-83,297,-277
415,0,2022-09-30T20:57:02.581169,4187054,-272,2103,198,-1053,-637,-330,-83,297,-277
416,0,2022-09-30T20:57:02.588749,4187062,-272,2103,198,-1053,-637,-330,-83,297,-277
417,0,2022-09-30T20:57:02.594510,4187068,-272,2103,198,-1053,-637,-330,-83,297,-277
418,0,2022-09-30T20:57:02.600077,4187074,-272,2103,198,-1053,-637,-330,-88,300,-274
419,0,2022-09-30T20:57:02.606311,4187080,-272,2103,198,-1053,-637,-330,-88,300,-274
420,0,2022-09-30T20:57:02.611725,4187085,-272,2103,198,-1053,-637,-330,-88,300,-274
421,0,2022-09-30T20:57:02.617795,4187090,-251,2092,198,-1055,-599,-361,-88,300,-274
422,0,2022-09-30T20:57:02.625015,4187099,-251,2092,198,-1055,-599,-361,-88,300,-274
423,0,2022-09-30T20:57:02.631695,4187105,-251,2092,198,-1055,-599,-361,-88,300,-274
424,0,2022-09-30T20:57:02.637084,4187111,-291,2113,186,-934,-588,-389,-88,300,-274
425,0,2022-09-30T20:57:02.644195,4187117,-291,2113,186,-934,-588,-389,-88,300,-274
426,0,2022-09-30T20:57:02.650959,4187124,-291,2113,186,-934,-588,-389,-88,300,-274
427,0,2022-09-30T20:57:02.656271,4187129,-300,2119,206,-1008,-569,-399,-88,300,-274
428,0,2022-09-30T20:57:02.662442,4187137,-300,2119,206,-1008,-569,-399,-88,300,-274
429,0,2022-09-30T20:57:02.669346,4187143,-300,2119,206,-1008,-569,-399,-88,300,-274
430,0,2022-09-30T20:57:02.674234,4187148,-267,2115,194,-928,-690,-326,-88,300,-274
431,0,2022-09-30T20:57:02.680192,4187154,-267,2115,194,-928,-690,-326,-88,300,-274
432,0,2022-09-30T20:57:02.686369,4187160,-267,2115,194,-928,-690,-326,-88,300,-274
433,0,2022-09-30T20:57:02.692617,4187165,-267,2115,194,-928,-690,-326,-88,300,-274
434,0,2022-09-30T20:57:02.697920,4187171,-256,2092,204,-982,-597,-356,-88,300,-274
435,0,2022-09-30T20:57:02.706485,4187180,-256,2092,204,-982,-597,-356,-88,300,-274
436,0,2022-09-30T20:57:02.712216,4187186,-256,2092,204,-982,-597,-356,-88,300,-274
437,0,2022-09-30T20:57:02.718550,4187192,-273,2106,196,-876,-495,-411,-98,294,-280
438,0,2022-09-30T20:57:02.724467,4187197,-273,2106,196,-876,-495,-411,-98,294,-280
439,0,2022-09-30T20:57:02.730401,4187203,-273,2106,196,-876,-495,-411,-98,294,-280
440,0,2022-09-30T20:57:02.735873,4187209,-297,2121,163,-834,-549,-307,-98,294,-280
441,0,2022-09-30T20:57:02.742291,4187214,-297,2121,163,-834,-549,-307,-98,294,-280
442,0,2022-09-30T20:57:02.749333,4187223,-297,2121,163,-834,-549,-307,-98,294,-280
443,0,2022-09-30T20:57:02.754665,4187228,-289,2106,172,-908,-674,-220,-98,294,-280
444,0,2022-09-30T20:57:02.760155,4187234,-289,2106,172,-908,-674,-220,-98,294,-280
445,0,2022-09-30T20:57:02.766953,4187240,-289,2106,172,-908,-674,-220,-98,294,-280
446,0,2022-09-30T20:57:02.772028,4187246,-289,2106,172,-908,-674,-220,-98,294,-280
447,0,2022-09-30T20:57:02.777052,4187251,-273,2093,211,-1021,-655,-298,-98,294,-280
448,0,2022-09-30T20:57:02.784135,4187257,-273,2093,211,-1021,-655,-298,-98,294,-280
449,0,2022-09-30T20:57:02.789268,4187262,-273,2093,211,-1021,-655,-298,-98,294,-280
450,0,2022-09-30T20:57:02.794362,4187268,-282,2109,201,-855,-629,-389,-98,294,-280
451,0,2022-09-30T20:57:02.800438,4187274,-282,2109,201,-855,-629,-389,-98,294,-280
452,0,2022-09-30T20:57:02.806788,4187280,-282,2109,201,-855,-629,-389,-98,294,-280
453,0,2022-09-30T20:57:02.811967,4187286,-282,2109,201,-855,-629,-389,-98,294,-280
454,0,2022-09-30T20:57:02.817158,4187290,-292,2098,196,-989,-610,-423,-98,294,-280
455,0,2022-09-30T20:57:02.823684,4187297,-292,2098,196,-989,-610,-423,-98,294,-280
456,0,2022-09-30T20:57:02.829535,4187302,-292,2098,196,-989,-610,-423,-98,294,-280
457,0,2022-09-30T20:57:02.835060,4187309,-269,2099,184,-1043,-609,-364,-98,294,-280
458,0,2022-09-30T20:57:02.842344,4187316,-269,2099,184,-1043,-609,-364,-98,294,-280
459,0,2022-09-30T20:57:02.850670,4187324,-269,2099,184,-1043,-609,-364,-98,294,-280
460,0,2022-09-30T20:57:02.856681,4187330,-271,2111,189,-961,-625,-336,-94,286,-284
461,0,2022-09-30T20:57:02.862193,4187335,-271,2111,189,-961,-625,-336,-94,286,-284
462,0,2022-09-30T20:57:02.868947,4187342,-271,2111,189,-961,-625,-336,-94,286,-284
463,0,2022-09-30T20:57:02.874407,4187347,-271,2111,189,-961,-625,-336,-94,286,-284
464,0,2022-09-30T20:57:02.884377,4187355,-283,2115,193,-942,-659,-338,-94,286,-284
465,0,2022-09-30T20:57:02.897867,4187371,-266,2111,189,-917,-694,-318,-94,286,-284
466,0,2022-09-30T20:57:02.908940,4187382,-266,2111,189,-917,-694,-318,-94,286,-284
467,0,2022-09-30T20:57:02.915006,4187387,-266,2111,189,-917,-694,-318,-94,286,-284
468,0,2022-09-30T20:57:02.927553,4187400,-247,2110,179,-930,-631,-285,-94,286,-284
469,0,2022-09-30T20:57:02.936608,4187410,-265,2104,174,-917,-550,-341,-94,286,-284
470,0,2022-09-30T20:57:02.945563,4187417,-265,2104,174,-917,-550,-341,-94,286,-284
471,0,2022-09-30T20:57:02.954499,4187427,-265,2104,174,-917,-550,-341,-94,286,-284
472,0,2022-09-30T20:57:02.960824,4187435,-271,2112,180,-970,-510,-362,-94,286,-284
473,0,2022-09-30T20:57:02.969526,4187442,-271,2112,180,-970,-510,-362,-94,286,-284
474,0,2022-09-30T20:57:02.977763,4187451,-275,2096,190,-1018,-580,-336,-95,287,-289
475,0,2022-09-30T20:57:02.986459,4187460,-275,2096,190,-1018,-580,-336,-95,287,-289
476,0,2022-09-30T20:57:02.992284,4187465,-275,2096,190,-1018,-580,-336,-95,287,-289
477,0,2022-09-30T20:57:03.000640,4187473,-283,2109,205,-1033,-601,-356,-95,287,-289
478,0,2022-09-30T20:57:03.009216,4187483,-283,2109,205,-1033,-601,-356,-95,287,-289
479,0,2022-09-30T20:57:03.014350,4187488,-283,2109,205,-1033,-601,-356,-95,287,-289
480,0,2022-09-30T20:57:03.021601,4187494,-294,2133,171,-830,-705,-337,-95,287,-289
481,0,2022-09-30T20:57:03.032196,4187505,-294,2133,171,-830,-705,-337,-95,287,-289
482,0,2022-09-30T20:57:03.037816,4187511,-265,2111,172,-959,-686,-364,-95,287,-289
483,0,2022-09-30T20:57:03.048854,4187522,-265,2111,172,-959,-686,-364,-95,287,-289
484,0,2022-09-30T20:57:03.055016,4187529,-244,2095,188,-1010,-561,-372,-95,287,-289
485,0,2022-09-30T20:57:03.061189,4187535,-244,2095,188,-1010,-561,-372,-95,287,-289
486,0,2022-09-30T20:57:03.067528,4187541,-244,2095,188,-1010,-561,-372,-95,287,-289
487,0,2022-09-30T20:57:03.074272,4187546,-244,2095,188,-1010,-561,-372,-95,287,-289
488,0,2022-09-30T20:57:03.081163,4187554,-260,2084,203,-913,-490,-418,-95,287,-289
489,0,2022-09-30T20:57:03.089443,4187563,-260,2084,203,-913,-490,-418,-95,287,-289
490,0,2022-09-30T20:57:03.096011,4187569,-302,2114,192,-821,-522,-356,-95,287,-289
491,0,2022-09-30T20:57:03.103904,4187578,-302,2114,192,-821,-522,-356,-95,287,-289
492,0,2022-09-30T20:57:03.109219,4187583,-302,2114,192,-821,-522,-356,-95,287,-289
493,0,2022-09-30T20:57:03.114676,4187588,-302,2114,192,-821,-522,-356,-95,287,-289
494,0,2022-09-30T20:57:03.121026,4187594,-301,2133,163,-865,-672,-293,-96,296,-282
495,0,2022-09-30T20:57:03.130039,4187603,-301,2133,163,-865,-672,-293,-96,296,-282
496,0,2022-09-30T20:57:03.135346,4187609,-252,2102,181,-1015,-691,-337,-96,296,-282
497,0,2022-09-30T20:57:03.142478,4187616,-252,2102,181,-1015,-691,-337,-96,296,-282
498,0,2022-09-30T20:57:03.152967,4187626,-252,2102,181,-1015,-691,-337,-96,296,-282
499,0,2022-09-30T20:57:03.158556,4187632,-246,2090,205,-952,-536,-437,-96,296,-282
500,0,2022-09-30T20:57:03.167299,4187640,-246,2090,205,-952,-536,-437,-96,296,-282
501,0,2022-09-30T20:57:03.175401,4187649,-283,2095,199,-682,-488,-420,-96,296,-282
502,0,2022-09-30T20:57:03.182308,4187656,-283,2095,199,-682,-488,-420,-96,296,-282
503,0,2022-09-30T20:57:03.187609,4187661,-283,2095,199,-682,-488,-420,-96,296,-282
504,0,2022-09-30T20:57:03.193955,4187666,-283,2095,199,-682,-488,-420,-96,296,-282
505,0,2022-09-30T20:57:03.199841,4187673,-331,2083,209,-906,-441,-223,-96,296,-282
506,0,2022-09-30T20:57:03.208033,4187681,-331,2083,209,-906,-441,-223,-96,296,-282
507,0,2022-09-30T20:57:03.213748,4187687,-331,2083,209,-906,-441,-223,-96,296,-282
508,0,2022-09-30T20:57:03.219230,4187692,-288,2106,224,-905,-559,-13,-96,296,-282
509,0,2022-09-30T20:57:03.229181,4187703,-288,2106,224,-905,-559,-13,-96,296,-282
510,0,2022-09-30T20:57:03.234294,4187708,-288,2106,224,-905,-559,-13,-96,296,-282
511,0,2022-09-30T20:57:03.239472,4187713,-210,2126,151,-887,-786,197,-97,297,-279
512,0,2022-09-30T20:57:03.251936,4187725,-210,2126,151,-887,-786,197,-97,297,-279
513,0,2022-09-30T20:57:03.257047,4187730,-198,2136,137,-963,-650,29,-97,297,-279
514,0,2022-09-30T20:57:03.263292,4187737,-198,2136,137,-963,-650,29,-97,297,-279
515,0,2022-09-30T20:57:03.270373,4187743,-198,2136,137,-963,-650,29,-97,297,-279
516,0,2022-09-30T20:57:03.276653,4187750,-245,2137,162,-986,-368,-295,-97,297,-279
517,0,2022-09-30T20:57:03.284166,4187758,-245,2137,162,-986,-368,-295,-97,297,-279
518,0,2022-09-30T20:57:03.289673,4187763,-245,2137,162,-986,-368,-295,-97,297,-279
519,0,2022-09-30T20:57:03.295720,4187768,-313,2043,197,-901,-283,-393,-97,297,-279
520,0,2022-09-30T20:57:03.304500,4187778,-313,2043,197,-901,-283,-393,-97,297,-279
521,0,2022-09-30T20:57:03.310644,4187785,-313,2043,197,-901,-283,-393,-97,297,-279
522,0,2022-09-30T20:57:03.316925,4187790,-314,2054,262,-551,-333,-32,-97,297,-279
523,0,2022-09-30T20:57:03.328060,4187802,-314,2054,262,-551,-333,-32,-97,297,-279
524,0,2022-09-30T20:57:03.334372,4187808,-314,2054,262,-551,-333,-32,-97,297,-279
525,0,2022-09-30T20:57:03.339325,4187813,-249,2117,185,-619,-519,471,-97,297,-279
526,0,2022-09-30T20:57:03.352804,4187826,-249,2117,185,-619,-519,471,-97,297,-279
527,0,2022-09-30T20:57:03.358891,4187833,-195,2184,116,-608,-677,648,-97,297,-285
528,0,2022-09-30T20:57:03.366867,4187840,-195,2184,116,-608,-677,648,-97,297,-285
529,0,2022-09-30T20:57:03.373668,4187847,-195,2184,116,-608,-677,648,-97,297,-285
530,0,2022-09-30T20:57:03.379008,4187852,-203,2160,119,-807,-682,508,-97,297,-285
531,0,2022-09-30T20:57:03.386536,4187860,-203,2160,119,-807,-682,508,-97,297,-285
532,0,2022-09-30T20:57:03.393319,4187866,-203,2160,119,-807,-682,508,-97,297,-285
533,0,2022-09-30T20:57:03.399877,4187873,-234,2083,145,-649,-502,406,-97,297,-285
534,0,2022-09-30T20:57:03.408451,4187882,-234,2083,145,-649,-502,406,-97,297,-285
535,0,2022-09-30T20:57:03.413822,4187887,-234,2083,145,-649,-502,406,-97,297,-285
536,0,2022-09-30T20:57:03.421066,4187892,-247,2035,188,-734,-113,540,-97,297,-285
537,0,2022-09-30T20:57:03.430211,4187904,-247,2035,188,-734,-113,540,-97,297,-285
538,0,2022-09-30T20:57:03.435326,4187909,-247,2056,202,-328,-396,1120,-97,297,-285
539,0,2022-09-30T20:57:03.442429,4187916,-247,2056,202,-328,-396,1120,-97,297,-285
540,0,2022-09-30T20:57:03.452226,4187926,-247,2056,202,-328,-396,1120,-97,297,-285
541,0,2022-09-30T20:57:03.457529,4187931,-247,2056,202,-328,-396,1120,-97,297,-285
542,0,2022-09-30T20:57:03.462802,4187936,-247,2056,202,-328,-396,1120,-97,297,-285
543,0,2022-09-30T20:57:03.469843,4187942,-247,2056,202,-328,-396,1120,-97,297,-285
544,0,2022-09-30T20:57:03.476971,4187951,-224,2061,256,267,426,2022,-97,297,-285
545,0,2022-09-30T20:57:03.483296,4187957,-224,2061,256,267,426,2022,-97,297,-285
546,0,2022-09-30T20:57:03.490921,4187964,-224,2061,256,267,426,2022,-97,297,-285
547,0,2022-09-30T20:57:03.498120,4187971,-208,2068,168,1293,202,2384,-89,283,-285
548,0,2022-09-30T20:57:03.504777,4187978,-208,2068,168,1293,202,2384,-89,283,-285
549,0,2022-09-30T20:57:03.510497,4187983,-208,2068,168,1293,202,2384,-89,283,-285
550,0,2022-09-30T20:57:03.516504,4187990,-202,2111,74,1952,-265,2890,-89,283,-285
551,0,2022-09-30T20:57:03.525576,4187999,-202,2111,74,1952,-265,2890,-89,283,-285
552,0,2022-09-30T20:57:03.532858,4188006,-202,2111,74,1952,-265,2890,-89,283,-285
553,0,2022-09-30T20:57:03.538059,4188012,-151,2171,22,1270,-261,2684,-89,283,-285
554,0,2022-09-30T20:57:03.547068,4188019,-151,2171,22,1270,-261,2684,-89,283,-285
555,0,2022-09-30T20:57:03.552417,4188025,-151,2171,22,1270,-261,2684,-89,283,-285
556,0,2022-09-30T20:57:03.557829,4188032,-82,2225,63,107,-76,2521,-89,283,-285
557,0,2022-09-30T20:57:03.564857,4188039,-82,2225,63,107,-76,2521,-89,283,-285
558,0,2022-09-30T20:57:03.570829,4188044,-82,2225,63,107,-76,2521,-89,283,-285
559,0,2022-09-30T20:57:03.576887,4188050,-62,2275,-13,69,-397,1978,-89,283,-285
560,0,2022-09-30T20:57:03.584772,4188058,-62,2275,-13,69,-397,1978,-89,283,-285
561,0,2022-09-30T20:57:03.590155,4188063,-62,2275,-13,69,-397,1978,-89,283,-285
562,0,2022-09-30T20:57:03.598586,4188070,-150,2279,4,-398,362,1147,-89,283,-285
563,0,2022-09-30T20:57:03.608540,4188083,-150,2279,4,-398,362,1147,-89,283,-285
564,0,2022-09-30T20:57:03.615515,4188089,-232,2276,13,-225,489,229,-89,283,-285
565,0,2022-09-30T20:57:03.624449,4188098,-232,2276,13,-225,489,229,-99,275,-295
566,0,2022-09-30T20:57:03.632323,4188106,-232,2276,13,-225,489,229,-99,275,-295
567,0,2022-09-30T20:57:03.637764,4188111,-202,2235,58,-732,-29,45,-99,275,-295
568,0,2022-09-30T20:57:03.648198,4188119,-202,2235,58,-732,-29,45,-99,275,-295
569,0,2022-09-30T20:57:03.654628,4188128,-202,2235,58,-732,-29,45,-99,275,-295
570,0,2022-09-30T20:57:03.660058,4188134,-179,2205,90,-1123,-570,198,-99,275,-295
571,0,2022-09-30T20:57:03.667540,4188140,-179,2205,90,-1123,-570,198,-99,275,-295
572,0,2022-09-30T20:57:03.674424,4188147,-179,2205,90,-1123,-570,198,-99,275,-295
573,0,2022-09-30T20:57:03.679988,4188153,-199,2160,95,-1513,-909,282,-99,275,-295
574,0,2022-09-30T20:57:03.687351,4188162,-199,2160,95,-1513,-909,282,-99,275,-295
575,0,2022-09-30T20:57:03.693473,4188166,-199,2160,95,-1513,-909,282,-99,275,-295
576,0,2022-09-30T20:57:03.700613,4188174,-180,2144,103,-1335,-919,443,-99,275,-295
577,0,2022-09-30T20:57:03.708985,4188183,-180,2144,103,-1335,-919,443,-99,275,-295
578,0,2022-09-30T20:57:03.714221,4188188,-180,2144,103,-1335,-919,443,-99,275,-295
579,0,2022-09-30T20:57:03.719984,4188192,-121,2146,51,-953,-951,869,-99,275,-295
580,0,2022-09-30T20:57:03.728683,4188203,-121,2146,51,-953,-951,869,-99,275,-295
581,0,2022-09-30T20:57:03.733828,4188208,-121,2146,51,-953,-951,869,-99,275,-295
582,0,2022-09-30T20:57:03.738738,4188213,-86,2148,113,-1148,-521,899,-99,275,-295
583,0,2022-09-30T20:57:03.748575,4188221,-86,2148,113,-1148,-521,899,-99,275,-295
584,0,2022-09-30T20:57:03.754063,4188228,-86,2148,113,-1148,-521,899,-99,275,-295
585,0,2022-09-30T20:57:03.759386,4188233,-52,2168,50,-458,-729,1179,-102,272,-292
586,0,2022-09-30T20:57:03.768156,4188240,-52,2168,50,-458,-729,1179,-102,272,-292
587,0,2022-09-30T20:57:03.776447,4188250,-59,2198,64,-1126,-596,1101,-102,272,-292
588,0,2022-09-30T20:57:03.783609,4188257,-59,2198,64,-1126,-596,1101,-102,272,-292
589,0,2022-09-30T20:57:03.789004,4188263,-59,2198,64,-1126,-596,1101,-102,272,-292
590,0,2022-09-30T20:57:03.794677,4188268,-59,2198,64,-1126,-596,1101,-102,272,-292
591,0,2022-09-30T20:57:03.800979,4188274,-150,2209,88,-1429,-386,843,-102,272,-292
592,0,2022-09-30T20:57:03.806218,4188279,-150,2209,88,-1429,-386,843,-102,272,-292
593,0,2022-09-30T20:57:03.811701,4188285,-150,2209,88,-1429,-386,843,-102,272,-292
594,0,2022-09-30T20:57:03.817715,4188291,-173,2204,87,-1433,-449,1187,-102,272,-292
595,0,2022-09-30T20:57:03.827426,4188301,-173,2204,87,-1433,-449,1187,-102,272,-292
596,0,2022-09-30T20:57:03.834172,4188308,-173,2204,87,-1433,-449,1187,-102,272,-292
597,0,2022-09-30T20:57:03.839406,4188313,-116,2141,118,-1989,-992,1567,-102,272,-292
598,0,2022-09-30T20:57:03.851453,4188324,-116,2141,118,-1989,-992,1567,-102,272,-292
599,0,2022-09-30T20:57:03.857623,4188331,-116,2141,118,-1989,-992,1567,-102,272,-292
600,0,2022-09-30T20:57:03.862885,4188337,-116,2141,118,-1989,-992,1567,-102,272,-292
601,0,2022-09-30T20:57:03.869620,4188343,-116,2141,118,-1989,-992,1567,-102,272,-292
602,0,2022-09-30T20:57:03.877596,4188351,29,2187,72,-2173,-2044,2214,-103,271,-297
603,0,2022-09-30T20:57:03.886162,4188359,29,2187,72,-2173,-2044,2214,-103,271,-297
604,0,2022-09-30T20:57:03.893200,4188366,29,2187,72,-2173,-2044,2214,-103,271,-297
605,0,2022-09-30T20:57:03.899540,4188372,-18,2196,99,-2521,-1470,1591,-103,271,-297
606,0,2022-09-30T20:57:03.908921,4188383,-18,2196,99,-2521,-1470,1591,-103,271,-297
607,0,2022-09-30T20:57:03.914182,4188388,-18,2196,99,-2521,-1470,1591,-103,271,-297
608,0,2022-09-30T20:57:03.920344,4188393,-81,2173,158,-2463,-760,1212,-103,271,-297
609,0,2022-09-30T20:57:03.932160,4188405,-81,2173,158,-2463,-760,1212,-103,271,-297
610,0,2022-09-30T20:57:03.937508,4188411,-37,2176,166,-2086,-797,1782,-103,271,-297
611,0,2022-09-30T20:57:03.944681,4188417,-37,2176,166,-2086,-797,1782,-103,271,-297
612,0,2022-09-30T20:57:03.954741,4188428,-37,2176,166,-2086,-797,1782,-103,271,-297
613,0,2022-09-30T20:57:03.959864,4188434,-32,2166,129,-2434,-1222,1873,-103,271,-297
614,0,2022-09-30T20:57:03.968233,4188441,-32,2166,129,-2434,-1222,1873,-103,271,-297
615,0,2022-09-30T20:57:03.974346,4188447,-32,2166,129,-2434,-1222,1873,-103,271,-297
616,0,2022-09-30T20:57:03.982480,4188455,-33,2137,142,-3519,-1657,1718,-103,271,-297
617,0,2022-09-30T20:57:03.989491,4188463,-33,2137,142,-3519,-1657,1718,-103,271,-297
618,0,2022-09-30T20:57:03.995795,4188469,-33,2137,142,-3519,-1657,1718,-103,271,-297
619,0,2022-09-30T20:57:04.002721,4188476,11,2096,163,-3641,-1842,1739,-103,271,-297
620,0,2022-09-30T20:57:04.010295,4188484,11,2096,163,-3641,-1842,1739,-103,271,-297
621,0,2022-09-30T20:57:04.015576,4188489,11,2096,163,-3641,-1842,1739,-103,271,-297
622,0,2022-09-30T20:57:04.024447,4188497,66,2131,191,-3037,-1623,2111,-111,257,-285
623,0,2022-09-30T20:57:04.032611,4188506,66,2131,191,-3037,-1623,2111,-111,257,-285
624,0,2022-09-30T20:57:04.038556,4188512,109,2128,177,-2364,-1772,1905,-111,257,-285
625,0,2022-09-30T20:57:04.050004,4188522,109,2128,177,-2364,-1772,1905,-111,257,-285
626,0,2022-09-30T20:57:04.055152,4188529,109,2128,177,-2364,-1772,1905,-111,257,-285
627,0,2022-09-30T20:57:04.060398,4188534,120,2103,182,-2767,-1315,1476,-111,257,-285
628,0,2022-09-30T20:57:04.070042,4188542,120,2103,182,-2767,-1315,1476,-111,257,-285
629,0,2022-09-30T20:57:04.076625,4188551,135,2129,215,-2309,-786,1229,-111,257,-285
630,0,2022-09-30T20:57:04.083245,4188557,135,2129,215,-2309,-786,1229,-111,257,-285
631,0,2022-09-30T20:57:04.088432,4188562,135,2129,215,-2309,-786,1229,-111,257,-285
632,0,2022-09-30T20:57:04.094519,4188567,135,2129,215,-2309,-786,1229,-111,257,-285
633,0,2022-09-30T20:57:04.100688,4188574,74,2114,207,-1825,-505,1196,-111,257,-285
634,0,2022-09-30T20:57:04.108532,4188582,74,2114,207,-1825,-505,1196,-111,257,-285
635,0,2022-09-30T20:57:04.113943,4188588,74,2114,207,-1825,-505,1196,-111,257,-285
636,0,2022-09-30T20:57:04.119624,4188593,89,2104,212,-1728,-347,836,-111,257,-285
637,0,2022-09-30T20:57:04.128994,4188603,89,2104,212,-1728,-347,836,-111,257,-285
638,0,2022-09-30T20:57:04.134417,4188608,89,2104,212,-1728,-347,836,-111,257,-285
639,0,2022-09-30T20:57:04.140395,4188614,144,2100,217,-1391,-112,459,-120,252,-282
640,0,2022-09-30T20:57:04.153161,4188626,144,2100,217,-1391,-112,459,-120,252,-282
641,0,2022-09-30T20:57:04.158317,4188632,178,2150,180,-587,76,596,-120,252,-282
642,0,2022-09-30T20:57:04.166007,4188640,178,2150,180,-587,76,596,-120,252,-282
643,0,2022-09-30T20:57:04.172333,4188646,178,2150,180,-587,76,596,-120,252,-282
644,0,2022-09-30T20:57:04.178361,4188652,121,2145,190,-50,799,123,-120,252,-282
645,0,2022-09-30T20:57:04.187021,4188660,121,2145,190,-50,799,123,-120,252,-282
646,0,2022-09-30T20:57:04.193308,4188666,121,2145,190,-50,799,123,-120,252,-282
647,0,2022-09-30T20:57:04.199606,4188674,117,2089,135,560,654,-58,-120,252,-282
648,0,2022-09-30T20:57:04.208056,4188682,117,2089,135,560,654,-58,-120,252,-282
649,0,2022-09-30T20:57:04.213527,4188687,117,2089,135,560,654,-58,-120,252,-282
650,0,2022-09-30T20:57:04.219664,4188692,186,2055,114,981,1138,-32,-120,252,-282
651,0,2022-09-30T20:57:04.231026,4188704,186,2055,114,981,1138,-32,-120,252,-282
652,0,2022-09-30T20:57:04.236314,4188710,249,2085,161,2023,1324,122,-120,252,-282
653,0,2022-09-30T20:57:04.241736,4188716,249,2085,161,2023,1324,122,-120,252,-282
654,0,2022-09-30T20:57:04.254237,4188728,249,2085,161,2023,1324,122,-120,252,-282
655,0,2022-09-30T20:57:04.259319,4188733,309,2093,50,3181,1718,-283,-109,253,-289
656,0,2022-09-30T20:57:04.264430,4188738,309,2093,50,3181,1718,-283,-109,253,-289
657,0,2022-09-30T20:57:04.270574,4188743,309,2093,50,3181,1718,-283,-109,253,-289
658,0,2022-09-30T20:57:04.277377,4188750,309,2093,50,3181,1718,-283,-109,253,-289
659,0,2022-09-30T20:57:04.283441,4188756,309,2093,50,3181,1718,-283,-109,253,-289
660,0,2022-09-30T20:57:04.288841,4188763,309,2093,50,3181,1718,-283,-109,253,-289
661,0,2022-09-30T20:57:04.294562,4188768,309,2093,50,3181,1718,-283,-109,253,-289
662,0,2022-09-30T20:57:04.302547,4188776,17,2096,118,2572,4807,-1565,-109,253,-289
663,0,2022-09-30T20:57:04.310623,4188784,17,2096,118,2572,4807,-1565,-109,253,-289
664,0,2022-09-30T20:57:04.315945,4188789,17,2096,118,2572,4807,-1565,-109,253,-289
665,0,2022-09-30T20:57:04.324895,4188797,47,2151,91,4265,3170,-1318,-109,253,-289
666,0,2022-09-30T20:57:04.332538,4188807,47,2151,91,4265,3170,-1318,-109,253,-289
667,0,2022-09-30T20:57:04.337701,4188812,135,2189,-74,5221,2744,-1687,-109,253,-289
668,0,2022-09-30T20:57:04.344922,4188818,135,2189,-74,5221,2744,-1687,-109,253,-289
669,0,2022-09-30T20:57:04.353413,4188827,135,2189,-74,5221,2744,-1687,-109,253,-289
670,0,2022-09-30T20:57:04.359379,4188833,12,2221,-31,3883,4737,-1889,-109,253,-289
671,0,2022-09-30T20:57:04.368297,4188840,12,2221,-31,3883,4737,-1889,-109,253,-289
672,0,2022-09-30T20:57:04.376029,4188850,12,2221,-31,3883,4737,-1889,-109,253,-289
673,0,2022-09-30T20:57:04.381261,4188855,-90,2215,-38,2867,5082,-2218,-109,253,-289
674,0,2022-09-30T20:57:04.389421,4188863,-90,2215,-38,2867,5082,-2218,-109,253,-289
675,0,2022-09-30T20:57:04.395979,4188868,-90,2215,-38,2867,5082,-2218,-109,253,-289
676,0,2022-09-30T20:57:04.402079,4188875,-217,2333,-39,3307,3542,-2460,-100,254,-316
677,0,2022-09-30T20:57:04.410064,4188883,-217,2333,-39,3307,3542,-2460,-100,254,-316
678,0,2022-09-30T20:57:04.415982,4188890,-217,2333,-39,3307,3542,-2460,-100,254,-316
679,0,2022-09-30T20:57:04.422906,4188896,-266,2341,-11,1409,2144,-1797,-100,254,-316
680,0,2022-09-30T20:57:04.431759,4188905,-266,2341,-11,1409,2144,-1797,-100,254,-316
681,0,2022-09-30T20:57:04.437258,4188911,-268,2311,-6,458,971,-1248,-100,254,-316
682,0,2022-09-30T20:57:04.445352,4188917,-268,2311,-6,458,971,-1248,-100,254,-316
683,0,2022-09-30T20:57:04.453860,4188928,-268,2311,-6,458,971,-1248,-100,254,-316
684,0,2022-09-30T20:57:04.459305,4188933,-134,2402,-87,1028,-825,-509,-100,254,-316
685,0,2022-09-30T20:57:04.467736,4188941,-134,2402,-87,1028,-825,-509,-100,254,-316
686,0,2022-09-30T20:57:04.475615,4188949,-134,2402,-87,1028,-825,-509,-100,254,-316
687,0,2022-09-30T20:57:04.481545,4188955,-30,2404,-139,-375,-2203,-710,-100,254,-316
688,0,2022-09-30T20:57:04.488717,4188962,-30,2404,-139,-375,-2203,-710,-100,254,-316
689,0,2022-09-30T20:57:04.494507,4188967,-30,2404,-139,-375,-2203,-710,-100,254,-316
690,0,2022-09-30T20:57:04.501585,4188975,-74,2186,-91,-2496,-2077,-1079,-100,254,-316
691,0,2022-09-30T20:57:04.509512,4188983,-74,2186,-91,-2496,-2077,-1079,-100,254,-316
692,0,2022-09-30T20:57:04.514639,4188988,-74,2186,-91,-2496,-2077,-1079,-100,254,-316
693,0,2022-09-30T20:57:04.521163,4188994,-7,2117,29,-2222,-1981,-825,-100,248,-320
694,0,2022-09-30T20:57:04.533354,4189006,-7,2117,29,-2222,-1981,-825,-100,248,-320
695,0,2022-09-30T20:57:04.538751,4189012,45,2086,-39,-177,-1347,172,-100,248,-320
696,0,2022-09-30T20:57:04.553199,4189027,45,2086,-39,-177,-1347,172,-100,248,-320
697,0,2022-09-30T20:57:04.559767,4189033,208,2187,-100,1103,-268,833,-100,248,-320
698,0,2022-09-30T20:57:04.569661,4189041,208,2187,-100,1103,-268,833,-100,248,-320
699,0,2022-09-30T20:57:04.580983,4189054,232,2182,-88,1328,878,808,-100,248,-320
700,0,2022-09-30T20:57:04.588276,4189062,232,2182,-88,1328,878,808,-100,248,-320
701,0,2022-09-30T20:57:04.594659,4189068,232,2182,-88,1328,878,808,-100,248,-320
702,0,2022-09-30T20:57:04.603407,4189077,174,2136,-127,994,1286,520,-100,248,-320
703,0,2022-09-30T20:57:04.610845,4189084,174,2136,-127,994,1286,520,-100,248,-320
704,0,2022-09-30T20:57:04.616012,4189089,174,2136,-127,994,1286,520,-100,248,-320
705,0,2022-09-30T20:57:04.626236,4189100,47,2201,-133,1225,1761,36,-100,248,-320
706,0,2022-09-30T20:57:04.633783,4189108,47,2201,-133,1225,1761,36,-100,248,-320
707,0,2022-09-30T20:57:04.639098,4189113,-57,2230,-89,871,3073,-110,-100,248,-320
708,0,2022-09-30T20:57:04.650451,4189123,-57,2230,-89,871,3073,-110,-100,248,-320
709,0,2022-09-30T20:57:04.656559,4189130,2,2200,-166,1086,2480,489,-110,254,-320
710,0,2022-09-30T20:57:04.662957,4189136,2,2200,-166,1086,2480,489,-110,254,-334
711,0,2022-09-30T20:57:04.671733,4189146,2,2200,-166,1086,2480,489,-110,254,-334
712,0,2022-09-30T20:57:04.678299,4189152,148,2179,-194,820,2313,1329,-110,254,-334
713,0,2022-09-30T20:57:04.685647,4189159,148,2179,-194,820,2313,1329,-110,254,-334
714,0,2022-09-30T20:57:04.690996,4189165,148,2179,-194,820,2313,1329,-110,254,-334
715,0,2022-09-30T20:57:04.698203,4189171,181,2249,-274,2019,2561,1714,-110,254,-334
716,0,2022-09-30T20:57:04.705224,4189178,181,2249,-274,2019,2561,1714,-110,254,-334
717,0,2022-09-30T20:57:04.710645,4189185,181,2249,-274,2019,2561,1714,-110,254,-334
718,0,2022-09-30T20:57:04.716287,4189190,181,2249,-274,2019,2561,1714,-110,254,-334
719,0,2022-09-30T20:57:04.723550,4189196,-9,2282,-310,2696,2892,1264,-110,254,-334
720,0,2022-09-30T20:57:04.731413,4189205,-9,2282,-310,2696,2892,1264,-110,254,-334
721,0,2022-09-30T20:57:04.736978,4189210,-83,2312,-270,2360,3930,892,-110,254,-334
722,0,2022-09-30T20:57:04.744362,4189217,-83,2312,-270,2360,3930,892,-110,254,-334
723,0,2022-09-30T20:57:04.753888,4189228,-83,2312,-270,2360,3930,892,-110,254,-334
724,0,2022-09-30T20:57:04.759194,4189233,12,2337,-237,687,3814,1073,-110,254,-334
725,0,2022-09-30T20:57:04.766285,4189240,12,2337,-237,687,3814,1073,-110,254,-334
726,0,2022-09-30T20:57:04.775384,4189248,12,2337,-237,687,3814,1073,-110,254,-334
727,0,2022-09-30T20:57:04.781754,4189255,-8,2304,-246,-321,2870,1321,-107,237,-343
728,0,2022-09-30T20:57:04.787119,4189260,-8,2304,-246,-321,2870,1321,-107,237,-343
729,0,2022-09-30T20:57:04.792431,4189265,-8,2304,-246,-321,2870,1321,-107,237,-343
730,0,2022-09-30T20:57:04.799789,4189273,-62,2255,-223,-470,2665,922,-107,237,-343
731,0,2022-09-30T20:57:04.808611,4189282,-62,2255,-223,-470,2665,922,-107,237,-343
732,0,2022-09-30T20:57:04.813357,4189287,-62,2255,-223,-470,2665,922,-107,237,-343
733,0,2022-09-30T20:57:04.819142,4189292,-72,2184,-197,-1216,1839,614,-107,237,-343
734,0,2022-09-30T20:57:04.831765,4189305,-72,2184,-197,-1216,1839,614,-107,237,-343
735,0,2022-09-30T20:57:04.836903,4189310,-115,2178,-215,-1412,1267,447,-107,237,-343
736,0,2022-09-30T20:57:04.844951,4189317,-115,2178,-215,-1412,1267,447,-107,237,-343
737,0,2022-09-30T20:57:04.855768,4189329,-115,2178,-215,-1412,1267,447,-107,237,-343
738,0,2022-09-30T20:57:04.862556,4189336,-120,2249,-195,-1078,1068,280,-107,237,-343
739,0,2022-09-30T20:57:04.879599,4189347,-120,2249,-195,-1078,1068,280,-107,237,-343
740,0,2022-09-30T20:57:04.887486,4189361,-119,2273,-214,-2104,292,235,-107,237,-343
741,0,2022-09-30T20:57:04.901478,4189373,-97,2278,-187,-2355,30,-53,-107,237,-343
742,0,2022-09-30T20:57:04.914751,4189386,-97,2278,-187,-2355,30,-53,-107,237,-343
743,0,2022-09-30T20:57:04.921508,4189394,-86,2278,-122,-2286,-160,-186,-107,227,-341
744,0,2022-09-30T20:57:04.932201,4189406,-86,2278,-122,-2286,-160,-186,-107,227,-341
745,0,2022-09-30T20:57:04.937363,4189411,-96,2257,-194,-2403,-1112,-257,-107,227,-341
746,0,2022-09-30T20:57:04.946201,4189417,-96,2257,-194,-2403,-1112,-257,-107,227,-341
747,0,2022-09-30T20:57:04.956364,4189430,-96,2257,-194,-2403,-1112,-257,-107,227,-341
748,0,2022-09-30T20:57:04.961582,4189435,-91,2233,-235,-2130,-1765,-239,-107,227,-341
749,0,2022-09-30T20:57:04.971299,4189445,-91,2233,-235,-2130,-1765,-239,-107,227,-341
750,0,2022-09-30T20:57:04.977890,4189452,-28,2209,-233,-2134,-2018,-16,-107,227,-341
751,0,2022-09-30T20:57:04.988345,4189462,-28,2209,-233,-2134,-2018,-16,-107,227,-341
752,0,2022-09-30T20:57:04.997513,4189469,-28,2209,-233,-2134,-2018,-16,-107,227,-341
753,0,2022-09-30T20:57:05.003175,4189476,62,2201,-199,-2302,-1789,193,-107,227,-341
754,0,2022-09-30T20:57:05.010171,4189484,62,2201,-199,-2302,-1789,193,-107,227,-341
755,0,2022-09-30T20:57:05.015885,4189490,62,2201,-199,-2302,-1789,193,-107,227,-341
756,0,2022-09-30T20:57:05.021666,4189496,113,2197,-186,-2208,-1372,513,-107,227,-341
757,0,2022-09-30T20:57:05.029961,4189503,113,2197,-186,-2208,-1372,513,-107,227,-341
758,0,2022-09-30T20:57:05.036222,4189509,113,2197,-186,-2208,-1372,513,-107,227,-341
759,0,2022-09-30T20:57:05.041706,4189515,81,2187,-193,-1768,-907,760,-108,230,-334
760,0,2022-09-30T20:57:05.053885,4189528,81,2187,-193,-1768,-907,760,-108,230,-334
761,0,2022-09-30T20:57:05.059443,4189533,62,2185,-183,-1388,-569,887,-108,230,-334
762,0,2022-09-30T20:57:05.064923,4189538,62,2185,-183,-1388,-569,887,-108,230,-334
763,0,2022-09-30T20:57:05.071270,4189544,62,2185,-183,-1388,-569,887,-108,230,-334
764,0,2022-09-30T20:57:05.077172,4189551,62,2185,-183,-1388,-569,887,-108,230,-334
765,0,2022-09-30T20:57:05.082616,4189556,75,2208,-169,-1120,-486,831,-108,230,-334
766,0,2022-09-30T20:57:05.089747,4189563,75,2208,-169,-1120,-486,831,-108,230,-334
767,0,2022-09-30T20:57:05.096682,4189569,75,2208,-169,-1120,-486,831,-108,230,-334
768,0,2022-09-30T20:57:05.104096,4189578,90,2206,-182,-1099,-813,690,-108,230,-334
769,0,2022-09-30T20:57:05.111580,4189585,90,2206,-182,-1099,-813,690,-108,230,-334
770,0,2022-09-30T20:57:05.117321,4189591,90,2206,-182,-1099,-813,690,-108,230,-334
771,0,2022-09-30T20:57:05.124314,4189597,102,2214,-178,-1376,-1076,444,-108,230,-334
772,0,2022-09-30T20:57:05.132523,4189606,102,2214,-178,-1376,-1076,444,-108,230,-334
773,0,2022-09-30T20:57:05.138437,4189612,111,2220,-159,-1708,-1189,352,-108,230,-334
774,0,2022-09-30T20:57:05.146518,4189619,111,2220,-159,-1708,-1189,352,-108,230,-334
775,0,2022-09-30T20:57:05.152027,4189626,111,2220,-159,-1708,-1189,352,-108,230,-334
776,0,2022-09-30T20:57:05.158485,4189632,136,2242,-148,-1569,-1148,350,-110,232,-342
777,0,2022-09-30T20:57:05.167189,4189640,136,2242,-148,-1569,-1148,350,-110,232,-342
778,0,2022-09-30T20:57:05.175015,4189648,136,2242,-148,-1569,-1148,350,-110,232,-342
779,0,2022-09-30T20:57:05.180741,4189654,155,2248,-147,-1416,-1204,333,-110,232,-342
780,0,2022-09-30T20:57:05.191816,4189666,155,2248,-147,-1416,-1204,333,-110,232,-342
781,0,2022-09-30T20:57:05.197954,4189672,151,2239,-170,-1100,-992,234,-110,232,-342
782,0,2022-09-30T20:57:05.203289,4189677,151,2239,-170,-1100,-992,234,-110,232,-342
783,0,2022-09-30T20:57:05.208664,4189682,151,2239,-170,-1100,-992,234,-110,232,-342
784,0,2022-09-30T20:57:05.213775,4189687,151,2239,-170,-1100,-992,234,-110,232,-342
785,0,2022-09-30T20:57:05.219210,4189692,134,2227,-143,-848,-768,50,-110,232,-342
786,0,2022-09-30T20:57:05.227119,4189701,134,2227,-143,-848,-768,50,-110,232,-342
787,0,2022-09-30T20:57:05.232487,4189706,134,2227,-143,-848,-768,50,-110,232,-342
788,0,2022-09-30T20:57:05.237698,4189712,104,2207,-122,-947,-593,-24,-110,232,-342
789,0,2022-09-30T20:57:05.245785,4189718,104,2207,-122,-947,-593,-24,-110,232,-342
790,0,2022-09-30T20:57:05.254270,4189728,104,2207,-122,-947,-593,-24,-110,232,-342
791,0,2022-09-30T20:57:05.259843,4189733,90,2240,-135,-450,-862,-217,-110,232,-342
792,0,2022-09-30T20:57:05.264800,4189739,90,2240,-135,-450,-862,-217,-110,232,-342
793,0,2022-09-30T20:57:05.271729,4189744,90,2240,-135,-450,-862,-217,-110,232,-342
794,0,2022-09-30T20:57:05.278438,4189752,62,2235,-125,-826,-965,-260,-110,232,-342
795,0,2022-09-30T20:57:05.286558,4189760,62,2235,-125,-826,-965,-260,-110,232,-342
796,0,2022-09-30T20:57:05.291896,4189765,62,2235,-125,-826,-965,-260,-110,232,-342
797,0,2022-09-30T20:57:05.298555,4189771,68,2242,-90,-927,-1145,-251,-109,221,-335
798,0,2022-09-30T20:57:05.307404,4189782,68,2242,-90,-927,-1145,-251,-109,221,-335
799,0,2022-09-30T20:57:05.312745,4189787,68,2242,-90,-927,-1145,-251,-109,221,-335
800,0,2022-09-30T20:57:05.319700,4189792,78,2236,-101,-987,-1509,-87,-109,221,-335
801,0,2022-09-30T20:57:05.329557,4189803,78,2236,-101,-987,-1509,-87,-109,221,-335
802,0,2022-09-30T20:57:05.336504,4189810,78,2236,-101,-987,-1509,-87,-109,221,-335
803,0,2022-09-30T20:57:05.342882,4189816,93,2239,-125,-999,-1955,4,-109,221,-335
804,0,2022-09-30T20:57:05.354293,4189828,93,2239,-125,-999,-1955,4,-109,221,-335
805,0,2022-09-30T20:57:05.361639,4189835,96,2225,-138,-1152,-2143,-84,-109,221,-335
806,0,2022-09-30T20:57:05.369674,4189843,96,2225,-138,-1152,-2143,-84,-109,221,-335
807,0,2022-09-30T20:57:05.375788,4189849,96,2225,-138,-1152,-2143,-84,-109,221,-335
808,0,2022-09-30T20:57:05.380900,4189854,115,2196,-120,-1181,-2127,-234,-109,221,-335
809,0,2022-09-30T20:57:05.387528,4189861,115,2196,-120,-1181,-2127,-234,-109,221,-335
810,0,2022-09-30T20:57:05.392694,4189867,115,2196,-120,-1181,-2127,-234,-109,221,-335
811,0,2022-09-30T20:57:05.398968,4189873,129,2197,-125,-985,-2121,-290,-109,221,-335
812,0,2022-09-30T20:57:05.407919,4189881,129,2197,-125,-985,-2121,-290,-109,221,-335
813,0,2022-09-30T20:57:05.413298,4189887,129,2197,-125,-985,-2121,-290,-109,221,-335
814,0,2022-09-30T20:57:05.419149,4189892,125,2216,-148,-775,-2297,-373,-111,227,-339
815,0,2022-09-30T20:57:05.429535,4189903,125,2216,-148,-775,-2297,-373,-111,227,-339
816,0,2022-09-30T20:57:05.435133,4189908,125,2216,-148,-775,-2297,-373,-111,227,-339
817,0,2022-09-30T20:57:05.440514,4189914,120,2212,-136,-902,-2394,-530,-111,227,-339
818,0,2022-09-30T20:57:05.453085,4189927,120,2212,-136,-902,-2394,-530,-111,227,-339
819,0,2022-09-30T20:57:05.458323,4189932,122,2216,-125,-921,-2408,-530,-111,227,-339
820,0,2022-09-30T20:57:05.465653,4189939,122,2216,-125,-921,-2408,-530,-111,227,-339
821,0,2022-09-30T20:57:05.472397,4189944,122,2216,-125,-921,-2408,-530,-111,227,-339
822,0,2022-09-30T20:57:05.479096,4189953,114,2223,-140,-809,-2410,-525,-111,227,-339
823,0,2022-09-30T20:57:05.487482,4189961,114,2223,-140,-809,-2410,-525,-111,227,-339
824,0,2022-09-30T20:57:05.492866,4189966,114,2223,-140,-809,-2410,-525,-111,227,-339
825,0,2022-09-30T20:57:05.499660,4189973,100,2231,-152,-712,-2473,-568,-111,227,-339
826,0,2022-09-30T20:57:05.508865,4189982,100,2231,-152,-712,-2473,-568,-111,227,-339
827,0,2022-09-30T20:57:05.515030,4189988,100,2231,-152,-712,-2473,-568,-111,227,-339
828,0,2022-09-30T20:57:05.521621,4189995,88,2221,-147,-721,-2664,-644,-111,227,-339
829,0,2022-09-30T20:57:05.531090,4190005,88,2221,-147,-721,-2664,-644,-111,227,-339
830,0,2022-09-30T20:57:05.537064,4190011,88,2221,-147,-721,-2664,-644,-111,227,-339
831,0,2022-09-30T20:57:05.542765,4190016,84,2214,-152,-726,-2807,-723,-111,227,-339
832,0,2022-09-30T20:57:05.557241,4190030,84,2214,-152,-726,-2807,-723,-111,227,-339
833,0,2022-09-30T20:57:05.562161,4190036,84,2214,-152,-726,-2807,-723,-103,227,-323
834,0,2022-09-30T20:57:05.568775,4190042,84,2214,-152,-726,-2807,-723,-103,227,-323
835,0,2022-09-30T20:57:05.574934,4190049,84,2214,-152,-726,-2807,-723,-103,227,-323
836,0,2022-09-30T20:57:05.581218,4190055,93,2230,-163,-743,-3036,-724,-103,227,-323
837,0,2022-09-30T20:57:05.589116,4190063,93,2230,-163,-743,-3036,-724,-103,227,-323
838,0,2022-09-30T20:57:05.595274,4190068,93,2230,-163,-743,-3036,-724,-103,227,-323
839,0,2022-09-30T20:57:05.602726,4190075,78,2229,-164,-759,-3118,-773,-103,227,-323
840,0,2022-09-30T20:57:05.610268,4190085,78,2229,-164,-759,-3118,-773,-103,227,-323
841,0,2022-09-30T20:57:05.615823,4190089,78,2229,-164,-759,-3118,-773,-103,227,-323
842,0,2022-09-30T20:57:05.624006,4190097,76,2225,-162,-730,-3215,-760,-103,227,-323
843,0,2022-09-30T20:57:05.633311,4190107,76,2225,-162,-730,-3215,-760,-103,227,-323
844,0,2022-09-30T20:57:05.638285,4190112,84,2235,-170,-725,-3400,-695,-103,227,-323
845,0,2022-09-30T20:57:05.649869,4190119,84,2235,-170,-725,-3400,-695,-103,227,-323
846,0,2022-09-30T20:57:05.655832,4190130,84,2235,-170,-725,-3400,-695,-103,227,-323
847,0,2022-09-30T20:57:05.660956,4190135,96,2245,-181,-799,-3547,-700,-103,227,-323
848,0,2022-09-30T20:57:05.668820,4190142,96,2245,-181,-799,-3547,-700,-103,227,-323
849,0,2022-09-30T20:57:05.675906,4190149,96,2245,-181,-799,-3547,-700,-103,227,-323
850,0,2022-09-30T20:57:05.681867,4190155,92,2239,-178,-882,-3686,-750,-100,250,-332
851,0,2022-09-30T20:57:05.688585,4190162,92,2239,-178,-882,-3686,-750,-100,250,-332
852,0,2022-09-30T20:57:05.695020,4190168,92,2239,-178,-882,-3686,-750,-100,250,-332
853,0,2022-09-30T20:57:05.701539,4190175,75,2230,-164,-945,-3770,-810,-100,250,-332
854,0,2022-09-30T20:57:05.710960,4190185,75,2230,-164,-945,-3770,-810,-100,250,-332
855,0,2022-09-30T20:57:05.717816,4190190,75,2230,-164,-945,-3770,-810,-100,250,-332
856,0,2022-09-30T20:57:05.725420,4190198,71,2226,-158,-917,-3848,-800,-100,250,-332
857,0,2022-09-30T20:57:05.733505,4190208,71,2226,-158,-917,-3848,-800,-100,250,-332
858,0,2022-09-30T20:57:05.738876,4190213,70,2228,-175,-852,-4003,-756,-100,250,-332
859,0,2022-09-30T20:57:05.749390,4190222,70,2228,-175,-852,-4003,-756,-100,250,-332
860,0,2022-09-30T20:57:05.754808,4190228,70,2228,-175,-852,-4003,-756,-100,250,-332
861,0,2022-09-30T20:57:05.760026,4190234,71,2232,-188,-855,-4105,-710,-100,250,-332
862,0,2022-09-30T20:57:05.769658,4190242,71,2232,-188,-855,-4105,-710,-100,250,-332
863,0,2022-09-30T20:57:05.776723,4190251,71,2232,-188,-855,-4105,-710,-100,250,-332
864,0,2022-09-30T20:57:05.782047,4190256,73,2238,-177,-885,-4129,-718,-100,250,-332
865,0,2022-09-30T20:57:05.790989,4190265,73,2238,-177,-885,-4129,-718,-100,250,-332
866,0,2022-09-30T20:57:05.798143,4190271,73,2238,-177,-885,-4129,-718,-100,250,-332
867,0,2022-09-30T20:57:05.804390,4190278,71,2234,-181,-901,-4213,-759,-105,251,-329
868,0,2022-09-30T20:57:05.812183,4190286,71,2234,-181,-901,-4213,-759,-105,251,-329
869,0,2022-09-30T20:57:05.817908,4190291,71,2234,-181,-901,-4213,-759,-105,251,-329
870,0,2022-09-30T20:57:05.826475,4190300,71,2234,-181,-901,-4213,-759,-105,251,-329
871,0,2022-09-30T20:57:05.833356,4190307,71,2234,-181,-901,-4213,-759,-105,251,-329
872,0,2022-09-30T20:57:05.838848,4190313,66,2239,-169,-904,-4342,-786,-105,251,-329
873,0,2022-09-30T20:57:05.847844,4190320,66,2239,-169,-904,-4342,-786,-105,251,-329
874,0,2022-09-30T20:57:05.853517,4190327,66,2239,-169,-904,-4342,-786,-105,251,-329
875,0,2022-09-30T20:57:05.859538,4190333,63,2245,-167,-855,-4484,-729,-105,251,-329
876,0,2022-09-30T20:57:05.869829,4190343,63,2245,-167,-855,-4484,-729,-105,251,-329
877,0,2022-09-30T20:57:05.875851,4190349,63,2245,-167,-855,-4484,-729,-105,251,-329
878,0,2022-09-30T20:57:05.882552,4190355,54,2250,-181,-913,-4800,-633,-105,251,-329
879,0,2022-09-30T20:57:05.892195,4190366,54,2250,-181,-913,-4800,-633,-105,251,-329
880,0,2022-09-30T20:57:05.898975,4190372,67,2225,-185,-1051,-5020,-576,-105,251,-329
881,0,2022-09-30T20:57:05.909717,4190384,67,2225,-185,-1051,-5020,-576,-105,251,-329
882,0,2022-09-30T20:57:05.914913,4190389,67,2225,-185,-1051,-5020,-576,-105,251,-329
883,0,2022-09-30T20:57:05.920484,4190394,90,2230,-194,-1141,-5157,-540,-105,251,-329
884,0,2022-09-30T20:57:05.932413,4190406,90,2230,-194,-1141,-5157,-540,-105,251,-329
885,0,2022-09-30T20:57:05.937716,4190411,90,2230,-194,-1141,-5157,-540,-105,251,-329
886,0,2022-09-30T20:57:05.943352,4190416,100,2239,-190,-1211,-5086,-581,-103,257,-323
887,0,2022-09-30T20:57:05.955358,4190429,100,2239,-190,-1211,-5086,-581,-103,257,-323
888,0,2022-09-30T20:57:05.960580,4190434,89,2232,-191,-1145,-5035,-652,-103,257,-323
889,0,2022-09-30T20:57:05.966140,4190440,89,2232,-191,-1145,-5035,-652,-103,257,-323
890,0,2022-09-30T20:57:05.973523,4190446,89,2232,-191,-1145,-5035,-652,-103,257,-323
891,0,2022-09-30T20:57:05.979557,4190453,81,2215,-184,-1097,-5057,-723,-103,257,-323
892,0,2022-09-30T20:57:05.989761,4190464,81,2215,-184,-1097,-5057,-723,-103,257,-323
893,0,2022-09-30T20:57:05.995964,4190469,81,2215,-184,-1097,-5057,-723,-103,257,-323
894,0,2022-09-30T20:57:06.002916,4190476,76,2211,-178,-1003,-5140,-739,-103,257,-323
895,0,2022-09-30T20:57:06.011043,4190485,76,2211,-178,-1003,-5140,-739,-103,257,-323
896,0,2022-09-30T20:57:06.016939,4190490,76,2211,-178,-1003,-5140,-739,-103,257,-323
897,0,2022-09-30T20:57:06.024779,4190498,74,2220,-177,-1017,-5207,-705,-103,257,-323
898,0,2022-09-30T20:57:06.034646,4190509,74,2220,-177,-1017,-5207,-705,-103,257,-323
899,0,2022-09-30T20:57:06.040303,4190514,77,2217,-161,-968,-5127,-636,-103,257,-323
900,0,2022-09-30T20:57:06.052252,4190526,77,2217,-161,-968,-5127,-636,-103,257,-323
901,0,2022-09-30T20:57:06.058017,4190532,77,2217,-161,-968,-5127,-636,-103,257,-323
902,0,2022-09-30T20:57:06.063434,4190537,80,2227,-167,-875,-5219,-538,-108,264,-320
903,0,2022-09-30T20:57:06.073959,4190546,80,2227,-167,-875,-5219,-538,-108,264,-320
904,0,2022-09-30T20:57:06.079947,4190554,84,2267,-190,-862,-5439,-553,-108,264,-320
905,0,2022-09-30T20:57:06.085736,4190559,84,2267,-190,-862,-5439,-553,-108,264,-320
906,0,2022-09-30T20:57:06.091602,4190566,84,2267,-190,-862,-5439,-553,-108,264,-320
907,0,2022-09-30T20:57:06.098883,4190572,84,2267,-190,-862,-5439,-553,-108,264,-320
908,0,2022-09-30T20:57:06.104784,4190578,105,2270,-185,-1055,-5548,-643,-108,264,-320
909,0,2022-09-30T20:57:06.112688,4190586,105,2270,-185,-1055,-5548,-643,-108,264,-320
910,0,2022-09-30T20:57:06.118626,4190592,105,2270,-185,-1055,-5548,-643,-108,264,-320
911,0,2022-09-30T20:57:06.125166,4190599,116,2221,-171,-1142,-5574,-832,-108,264,-320
912,0,2022-09-30T20:57:06.134001,4190608,116,2221,-171,-1142,-5574,-832,-108,264,-320
913,0,2022-09-30T20:57:06.139263,4190613,105,2189,-160,-1182,-5770,-966,-108,264,-320
914,0,2022-09-30T20:57:06.148839,4190621,105,2189,-160,-1182,-5770,-966,-108,264,-320
915,0,2022-09-30T20:57:06.155181,4190628,105,2189,-160,-1182,-5770,-966,-108,264,-320
916,0,2022-09-30T20:57:06.160981,4190635,122,2213,-148,-1164,-5865,-922,-108,264,-320
917,0,2022-09-30T20:57:06.169675,4190643,122,2213,-148,-1164,-5865,-922,-108,264,-320
918,0,2022-09-30T20:57:06.176929,4190651,122,2213,-148,-1164,-5865,-922,-108,264,-320
919,0,2022-09-30T20:57:06.184631,4190658,126,2239,-181,-958,-5880,-875,-108,264,-320
920,0,2022-09-30T20:57:06.193565,4190666,126,2239,-181,-958,-5880,-875,-108,264,-320
921,0,2022-09-30T20:57:06.201147,4190674,123,2230,-182,-838,-5843,-906,-98,264,-318
922,0,2022-09-30T20:57:06.209948,4190684,123,2230,-182,-838,-5843,-906,-98,264,-318
923,0,2022-09-30T20:57:06.215409,4190689,123,2230,-182,-838,-5843,-906,-98,264,-318
924,0,2022-09-30T20:57:06.221432,4190695,114,2206,-162,-802,-5644,-961,-98,264,-318
925,0,2022-09-30T20:57:06.233144,4190707,114,2206,-162,-802,-5644,-961,-98,264,-318
926,0,2022-09-30T20:57:06.238563,4190712,116,2194,-147,-635,-5298,-1024,-98,264,-318
927,0,2022-09-30T20:57:06.245163,4190717,116,2194,-147,-635,-5298,-1024,-98,264,-318
928,0,2022-09-30T20:57:06.254319,4190728,116,2194,-147,-635,-5298,-1024,-98,264,-318
929,0,2022-09-30T20:57:06.259691,4190734,32,2206,-178,-313,-5159,-1136,-98,264,-318
930,0,2022-09-30T20:57:06.267170,4190741,32,2206,-178,-313,-5159,-1136,-98,264,-318
931,0,2022-09-30T20:57:06.275537,4190748,32,2206,-178,-313,-5159,-1136,-98,264,-318
932,0,2022-09-30T20:57:06.282686,4190756,4,2258,-185,-447,-5362,-1072,-98,264,-318
933,0,2022-09-30T20:57:06.290748,4190765,4,2258,-185,-447,-5362,-1072,-98,264,-318
934,0,2022-09-30T20:57:06.296946,4190770,4,2258,-185,-447,-5362,-1072,-98,264,-318
935,0,2022-09-30T20:57:06.303531,4190777,16,2272,-194,-708,-5652,-949,-98,264,-318
936,0,2022-09-30T20:57:06.311695,4190785,16,2272,-194,-708,-5652,-949,-98,264,-318
937,0,2022-09-30T20:57:06.317567,4190791,16,2272,-194,-708,-5652,-949,-98,264,-318
938,0,2022-09-30T20:57:06.325662,4190799,46,2256,-212,-770,-5994,-769,-101,277,-311
939,0,2022-09-30T20:57:06.335119,4190809,46,2256,-212,-770,-5994,-769,-101,277,-311
940,0,2022-09-30T20:57:06.340939,4190815,29,2232,-243,-727,-6191,-704,-101,277,-311
941,0,2022-09-30T20:57:06.352923,4190827,29,2232,-243,-727,-6191,-704,-101,277,-311
942,0,2022-09-30T20:57:06.358316,4190832,29,2232,-243,-727,-6191,-704,-101,277,-311
943,0,2022-09-30T20:57:06.364020,4190837,65,2196,-199,-1112,-6321,-873,-101,277,-311
944,0,2022-09-30T20:57:06.372366,4190845,65,2196,-199,-1112,-6321,-873,-101,277,-311
945,0,2022-09-30T20:57:06.380615,4190854,117,2193,-176,-1199,-6404,-963,-101,277,-311
946,0,2022-09-30T20:57:06.388540,4190862,117,2193,-176,-1199,-6404,-963,-101,277,-311
947,0,2022-09-30T20:57:06.395051,4190868,117,2193,-176,-1199,-6404,-963,-101,277,-311
948,0,2022-09-30T20:57:06.401468,4190875,104,2193,-198,-1082,-6550,-1061,-101,277,-311
949,0,2022-09-30T20:57:06.409652,4190883,104,2193,-198,-1082,-6550,-1061,-101,277,-311
950,0,2022-09-30T20:57:06.415660,4190889,104,2193,-198,-1082,-6550,-1061,-101,277,-311
951,0,2022-09-30T20:57:06.421715,4190895,50,2204,-220,-1014,-6491,-1077,-101,277,-311
952,0,2022-09-30T20:57:06.431879,4190906,50,2204,-220,-1014,-6491,-1077,-101,277,-311
953,0,2022-09-30T20:57:06.437906,4190912,50,2204,-220,-1014,-6491,-1077,-101,277,-311
954,0,2022-09-30T20:57:06.443797,4190917,67,2223,-224,-1014,-6369,-1049,-101,277,-311
955,0,2022-09-30T20:57:06.457238,4190930,67,2223,-224,-1014,-6369,-1049,-101,277,-311
956,0,2022-09-30T20:57:06.462586,4190937,80,2233,-240,-996,-6514,-982,-99,285,-297
957,0,2022-09-30T20:57:06.471025,4190944,80,2233,-240,-996,-6514,-982,-99,285,-297
958,0,2022-09-30T20:57:06.476993,4190951,80,2233,-240,-996,-6514,-982,-99,285,-297
959,0,2022-09-30T20:57:06.483949,4190958,110,2236,-252,-942,-6531,-957,-99,285,-297
960,0,2022-09-30T20:57:06.492301,4190966,110,2236,-252,-942,-6531,-957,-99,285,-297
961,0,2022-09-30T20:57:06.499433,4190972,110,2236,-252,-942,-6531,-957,-99,285,-297
962,0,2022-09-30T20:57:06.509458,4190984,132,2244,-246,-842,-6478,-905,-99,285,-297
963,0,2022-09-30T20:57:06.515854,4190990,132,2244,-246,-842,-6478,-905,-99,285,-297
964,0,2022-09-30T20:57:06.522711,4190995,124,2253,-245,-713,-6163,-914,-99,285,-297
965,0,2022-09-30T20:57:06.560533,4191034,112,2228,-200,-691,-5742,-1077,-99,285,-297
966,0,2022-09-30T20:57:06.568861,4191042,112,2228,-200,-691,-5742,-1077,-99,285,-297
967,0,2022-09-30T20:57:06.575200,4191048,112,2228,-200,-691,-5742,-1077,-99,285,-297
968,0,2022-09-30T20:57:06.580554,4191054,86,2227,-202,-552,-5717,-1133,-99,297,-287
969,0,2022-09-30T20:57:06.587495,4191062,86,2227,-202,-552,-5717,-1133,-99,297,-287
970,0,2022-09-30T20:57:06.593230,4191067,86,2227,-202,-552,-5717,-1133,-99,297,-287
971,0,2022-09-30T20:57:06.601039,4191075,49,2237,-209,-481,-5545,-1033,-99,297,-287
972,0,2022-09-30T20:57:06.608923,4191083,49,2237,-209,-481,-5545,-1033,-99,297,-287
973,0,2022-09-30T20:57:06.614283,4191088,49,2237,-209,-481,-5545,-1033,-99,297,-287
974,0,2022-09-30T20:57:06.621957,4191093,28,2230,-177,-496,-5431,-958,-99,297,-287
975,0,2022-09-30T20:57:06.631065,4191105,28,2230,-177,-496,-5431,-958,-99,297,-287
976,0,2022-09-30T20:57:06.636290,4191110,28,2230,-177,-496,-5431,-958,-99,297,-287
977,0,2022-09-30T20:57:06.641950,4191116,33,2235,-179,-506,-5634,-862,-99,297,-287
978,0,2022-09-30T20:57:06.654365,4191128,33,2235,-179,-506,-5634,-862,-99,297,-287
979,0,2022-09-30T20:57:06.660375,4191134,34,2237,-214,-502,-5945,-798,-99,297,-287
980,0,2022-09-30T20:57:06.670240,4191143,34,2237,-214,-502,-5945,-798,-99,297,-287
981,0,2022-09-30T20:57:06.677086,4191151,34,2237,-214,-502,-5945,-798,-99,297,-287
982,0,2022-09-30T20:57:06.682380,4191157,32,2237,-209,-681,-5942,-861,-99,297,-287
983,0,2022-09-30T20:57:06.690130,4191164,32,2237,-209,-681,-5942,-861,-99,297,-287
984,0,2022-09-30T20:57:06.696558,4191169,32,2237,-209,-681,-5942,-861,-99,297,-287
985,0,2022-09-30T20:57:06.702580,4191176,28,2235,-208,-698,-5792,-971,-95,301,-277
986,0,2022-09-30T20:57:06.711796,4191185,28,2235,-208,-698,-5792,-971,-95,301,-277
987,0,2022-09-30T20:57:06.717018,4191191,28,2235,-208,-698,-5792,-971,-95,301,-277
988,0,2022-09-30T20:57:06.722895,4191197,16,2251,-217,-652,-5810,-903,-95,301,-277
989,0,2022-09-30T20:57:06.732744,4191207,16,2251,-217,-652,-5810,-903,-95,301,-277
990,0,2022-09-30T20:57:06.738097,4191212,16,2251,-217,-652,-5810,-903,-95,301,-277
991,0,2022-09-30T20:57:06.745708,4191217,15,2257,-223,-669,-5890,-747,-95,301,-277
992,0,2022-09-30T20:57:06.755119,4191228,15,2257,-223,-669,-5890,-747,-95,301,-277
993,0,2022-09-30T20:57:06.761460,4191235,20,2246,-235,-703,-6104,-579,-95,301,-277
994,0,2022-09-30T20:57:06.771351,4191244,20,2246,-235,-703,-6104,-579,-95,301,-277
995,0,2022-09-30T20:57:06.779525,4191253,20,2246,-235,-703,-6104,-579,-95,301,-277
996,0,2022-09-30T20:57:06.787964,4191260,42,2229,-239,-766,-6251,-537,-95,301,-277
997,0,2022-09-30T20:57:06.796309,4191268,42,2229,-239,-766,-6251,-537,-95,301,-277
998,0,2022-09-30T20:57:06.803543,4191277,59,2230,-255,-779,-6210,-617,-95,301,-277
999,0,2022-09-30T20:57:06.812216,4191286,59,2230,-255,-779,-6210,-617,-95,301,-277
1000,0,2022-09-30T20:57:06.817379,4191291,59,2230,-255,-779,-6210,-617,-95,301,-277
1001,0,2022-09-30T20:57:06.824057,4191297,69,2235,-263,-692,-6088,-610,-95,301,-277
1002,0,2022-09-30T20:57:06.832273,4191305,69,2235,-263,-692,-6088,-610,-95,301,-277
1003,0,2022-09-30T20:57:06.838573,4191311,69,2235,-263,-692,-6088,-610,-95,301,-277
1004,0,2022-09-30T20:57:06.846104,4191319,74,2227,-264,-585,-5866,-616,-88,306,-268
1005,0,2022-09-30T20:57:06.857090,4191331,74,2227,-264,-585,-5866,-616,-88,306,-268
1006,0,2022-09-30T20:57:06.862582,4191336,57,2240,-260,-585,-5776,-621,-88,306,-268
1007,0,2022-09-30T20:57:06.871690,4191344,57,2240,-260,-585,-5776,-621,-88,306,-268
1008,0,2022-09-30T20:57:06.878605,4191352,57,2240,-260,-585,-5776,-621,-88,306,-268
1009,0,2022-09-30T20:57:06.884802,4191358,39,2234,-266,-556,-5709,-641,-88,306,-268
1010,0,2022-09-30T20:57:06.894235,4191367,39,2234,-266,-556,-5709,-641,-88,306,-268
1011,0,2022-09-30T20:57:06.903540,4191377,46,2235,-249,-551,-5750,-597,-88,306,-268
1012,0,2022-09-30T20:57:06.913128,4191387,46,2235,-249,-551,-5750,-597,-88,306,-268
1013,0,2022-09-30T20:57:06.918811,4191392,46,2235,-249,-551,-5750,-597,-88,306,-268
1014,0,2022-09-30T20:57:06.925996,4191399,77,2275,-246,-667,-5787,-469,-88,306,-268
1015,0,2022-09-30T20:57:06.936142,4191409,77,2275,-246,-667,-5787,-469,-88,306,-268
1016,0,2022-09-30T20:57:06.943020,4191417,82,2295,-251,-894,-5919,-355,-88,306,-268
1017,0,2022-09-30T20:57:06.951172,4191425,82,2295,-251,-894,-5919,-355,-88,306,-268
1018,0,2022-09-30T20:57:06.957098,4191431,82,2295,-251,-894,-5919,-355,-88,306,-268
1019,0,2022-09-30T20:57:06.962143,4191436,67,2278,-237,-1191,-5995,-336,-95,315,-253
1020,0,2022-09-30T20:57:06.970377,4191443,67,2278,-237,-1191,-5995,-336,-95,315,-253
1021,0,2022-09-30T20:57:06.977251,4191451,67,2278,-237,-1191,-5995,-336,-95,315,-253
1022,0,2022-09-30T20:57:06.983073,4191457,64,2243,-219,-1335,-6136,-192,-95,315,-253
1023,0,2022-09-30T20:57:06.991731,4191466,64,2243,-219,-1335,-6136,-192,-95,315,-253
1024,0,2022-09-30T20:57:06.999430,4191471,64,2243,-219,-1335,-6136,-192,-95,315,-253
1025,0,2022-09-30T20:57:07.006019,4191479,107,2213,-219,-1385,-6339,63,-95,315,-253
1026,0,2022-09-30T20:57:07.014541,4191488,107,2213,-219,-1385,-6339,63,-95,315,-253
1027,0,2022-09-30T20:57:07.021152,4191494,164,2206,-222,-1323,-6338,183,-95,315,-253
1028,0,2022-09-30T20:57:07.034795,4191508,164,2206,-222,-1323,-6338,183,-95,315,-253
1029,0,2022-09-30T20:57:07.041085,4191514,174,2212,-232,-1203,-6171,6,-95,315,-253
1030,0,2022-09-30T20:57:07.053562,4191527,174,2212,-232,-1203,-6171,6,-95,315,-253
1031,0,2022-09-30T20:57:07.059745,4191534,174,2212,-232,-1203,-6171,6,-95,315,-253
1032,0,2022-09-30T20:57:07.066542,4191541,174,2212,-232,-1203,-6171,6,-95,315,-253
1033,0,2022-09-30T20:57:07.072895,4191546,174,2212,-232,-1203,-6171,6,-95,315,-253
1034,0,2022-09-30T20:57:07.079556,4191553,174,2212,-232,-1203,-6171,6,-95,315,-253
1035,0,2022-09-30T20:57:07.086773,4191560,146,2217,-206,-1083,-6043,-296,-95,315,-253
1036,0,2022-09-30T20:57:07.095307,4191567,146,2217,-206,-1083,-6043,-296,-95,315,-253
1037,0,2022-09-30T20:57:07.101817,4191576,208,2214,-190,-1207,-6244,-128,-85,311,-249
1038,0,2022-09-30T20:57:07.111271,4191585,208,2214,-190,-1207,-6244,-128,-85,311,-249
1039,0,2022-09-30T20:57:07.117047,4191591,208,2214,-190,-1207,-6244,-128,-85,311,-249
1040,0,2022-09-30T20:57:07.124310,4191597,235,2207,-214,-1136,-6286,-26,-85,311,-249
1041,0,2022-09-30T20:57:07.134512,4191607,235,2207,-214,-1136,-6286,-26,-85,311,-249
1042,0,2022-09-30T20:57:07.140859,4191614,222,2218,-244,-881,-6019,-130,-85,311,-249
1043,0,2022-09-30T20:57:07.151534,4191625,222,2218,-244,-881,-6019,-130,-85,311,-249
1044,0,2022-09-30T20:57:07.156791,4191631,222,2218,-244,-881,-6019,-130,-85,311,-249
1045,0,2022-09-30T20:57:07.162767,4191636,203,2210,-252,-825,-5722,-336,-85,311,-249
1046,0,2022-09-30T20:57:07.173118,4191646,203,2210,-252,-825,-5722,-336,-85,311,-249
1047,0,2022-09-30T20:57:07.179171,4191652,203,2210,-252,-825,-5722,-336,-85,311,-249
1048,0,2022-09-30T20:57:07.185802,4191660,193,2215,-241,-835,-5524,-446,-85,311,-249
1049,0,2022-09-30T20:57:07.193297,4191666,193,2215,-241,-835,-5524,-446,-85,311,-249
1050,0,2022-09-30T20:57:07.201244,4191675,202,2230,-228,-760,-5308,-497,-85,311,-249
1051,0,2022-09-30T20:57:07.209393,4191683,202,2230,-228,-760,-5308,-497,-85,311,-249
1052,0,2022-09-30T20:57:07.214700,4191688,202,2230,-228,-760,-5308,-497,-85,311,-249
1053,0,2022-09-30T20:57:07.220272,4191694,196,2220,-214,-706,-5080,-662,-80,310,-230
1054,0,2022-09-30T20:57:07.228036,4191702,196,2220,-214,-706,-5080,-662,-80,310,-230
1055,0,2022-09-30T20:57:07.233556,4191708,196,2220,-214,-706,-5080,-662,-80,310,-230
1056,0,2022-09-30T20:57:07.238682,4191713,196,2220,-214,-706,-5080,-662,-80,310,-230
1057,0,2022-09-30T20:57:07.245929,4191719,183,2226,-200,-664,-4939,-762,-80,310,-230
1058,0,2022-09-30T20:57:07.254560,4191728,183,2226,-200,-664,-4939,-762,-80,310,-230
1059,0,2022-09-30T20:57:07.260725,4191734,175,2233,-212,-634,-4913,-811,-80,310,-230
1060,0,2022-09-30T20:57:07.270973,4191744,175,2233,-212,-634,-4913,-811,-80,310,-230
1061,0,2022-09-30T20:57:07.278005,4191751,175,2233,-212,-634,-4913,-811,-80,310,-230
1062,0,2022-09-30T20:57:07.284991,4191758,174,2240,-233,-635,-4982,-825,-80,310,-230
1063,0,2022-09-30T20:57:07.293544,4191767,174,2240,-233,-635,-4982,-825,-80,310,-230
1064,0,2022-09-30T20:57:07.301269,4191775,158,2249,-266,-642,-4976,-874,-80,310,-230
1065,0,2022-09-30T20:57:07.310094,4191783,158,2249,-266,-642,-4976,-874,-80,310,-230
1066,0,2022-09-30T20:57:07.315960,4191790,158,2249,-266,-642,-4976,-874,-80,310,-230
1067,0,2022-09-30T20:57:07.322397,4191796,129,2242,-273,-616,-4789,-945,-80,310,-230
1068,0,2022-09-30T20:57:07.334134,4191808,129,2242,-273,-616,-4789,-945,-80,310,-230
1069,0,2022-09-30T20:57:07.340008,4191813,129,2242,-273,-616,-4789,-945,-80,310,-230
1070,0,2022-09-30T20:57:07.349382,4191820,122,2251,-277,-610,-4598,-961,-80,310,-230
1071,0,2022-09-30T20:57:07.358968,4191832,122,2251,-277,-610,-4598,-961,-80,310,-230
1072,0,2022-09-30T20:57:07.365592,4191839,136,2258,-273,-686,-4475,-926,-94,310,-226
1073,0,2022-09-30T20:57:07.379402,4191852,136,2258,-273,-686,-4475,-926,-94,310,-226
1074,0,2022-09-30T20:57:07.385707,4191859,155,2257,-271,-727,-4345,-900,-94,310,-226
1075,0,2022-09-30T20:57:07.391405,4191864,155,2257,-271,-727,-4345,-900,-94,310,-226
1076,0,2022-09-30T20:57:07.399217,4191872,155,2257,-271,-727,-4345,-900,-94,310,-226
1077,0,2022-09-30T20:57:07.405820,4191879,161,2241,-273,-770,-4240,-896,-94,310,-226
1078,0,2022-09-30T20:57:07.415665,4191889,161,2241,-273,-770,-4240,-896,-94,310,-226
1079,0,2022-09-30T20:57:07.423636,4191895,152,2233,-280,-828,-4139,-837,-94,310,-226
1080,0,2022-09-30T20:57:07.433477,4191906,152,2233,-280,-828,-4139,-837,-94,310,-226
1081,0,2022-09-30T20:57:07.438858,4191912,152,2233,-280,-828,-4139,-837,-94,310,-226
1082,0,2022-09-30T20:57:07.446418,4191918,132,2242,-292,-905,-4025,-782,-94,310,-226
1083,0,2022-09-30T20:57:07.458468,4191932,132,2242,-292,-905,-4025,-782,-94,310,-226
1084,0,2022-09-30T20:57:07.463781,4191937,124,2254,-307,-929,-3872,-796,-94,310,-226
1085,0,2022-09-30T20:57:07.476228,4191948,124,2254,-307,-929,-3872,-796,-94,310,-226
1086,0,2022-09-30T20:57:07.481226,4191955,135,2260,-291,-1015,-3684,-792,-94,322,-216
1087,0,2022-09-30T20:57:07.489239,4191963,135,2260,-291,-1015,-3684,-792,-94,322,-216
1088,0,2022-09-30T20:57:07.499083,4191970,135,2260,-291,-1015,-3684,-792,-94,322,-216
1089,0,2022-09-30T20:57:07.505684,4191979,151,2256,-286,-1086,-3508,-729,-94,322,-216
1090,0,2022-09-30T20:57:07.514667,4191988,151,2256,-286,-1086,-3508,-729,-94,322,-216
1091,0,2022-09-30T20:57:07.522543,4191994,153,2243,-285,-1049,-3335,-673,-94,322,-216
1092,0,2022-09-30T20:57:07.532447,4192006,153,2243,-285,-1049,-3335,-673,-94,322,-216
1093,0,2022-09-30T20:57:07.537822,4192012,153,2243,-285,-1049,-3335,-673,-94,322,-216
1094,0,2022-09-30T20:57:07.543682,4192017,153,2245,-299,-1006,-3152,-623,-94,322,-216
1095,0,2022-09-30T20:57:07.555083,4192029,153,2245,-299,-1006,-3152,-623,-94,322,-216
1096,0,2022-09-30T20:57:07.560591,4192034,164,2247,-297,-1021,-2926,-580,-94,322,-216
1097,0,2022-09-30T20:57:07.568283,4192041,164,2247,-297,-1021,-2926,-580,-94,322,-216
1098,0,2022-09-30T20:57:07.575563,4192049,164,2247,-297,-1021,-2926,-580,-94,322,-216
1099,0,2022-09-30T20:57:07.582724,4192057,169,2242,-290,-1066,-2688,-519,-94,322,-216
1100,0,2022-09-30T20:57:07.590648,4192065,169,2242,-290,-1066,-2688,-519,-94,322,-216
1101,0,2022-09-30T20:57:07.596698,4192070,169,2242,-290,-1066,-2688,-519,-94,322,-216
1102,0,2022-09-30T20:57:07.602539,4192076,173,2244,-302,-1122,-2504,-443,-90,306,-218
1103,0,2022-09-30T20:57:07.612644,4192087,173,2244,-302,-1122,-2504,-443,-90,306,-218
1104,0,2022-09-30T20:57:07.620113,4192093,173,2244,-302,-1122,-2504,-443,-90,306,-218
1105,0,2022-09-30T20:57:07.627655,4192100,176,2229,-286,-1202,-2283,-402,-90,306,-218
1106,0,2022-09-30T20:57:07.637794,4192111,176,2229,-286,-1202,-2283,-402,-90,306,-218
1107,0,2022-09-30T20:57:07.644165,4192117,185,2235,-267,-1184,-1981,-346,-90,306,-218
1108,0,2022-09-30T20:57:07.657845,4192131,185,2235,-267,-1184,-1981,-346,-90,306,-218
1109,0,2022-09-30T20:57:07.664352,4192138,180,2235,-278,-1117,-1784,-315,-90,306,-218
1110,0,2022-09-30T20:57:07.674432,4192147,180,2235,-278,-1117,-1784,-315,-90,306,-218
1111,0,2022-09-30T20:57:07.681164,4192154,181,2238,-277,-1140,-1555,-282,-90,306,-218
1112,0,2022-09-30T20:57:07.691096,4192164,181,2238,-277,-1140,-1555,-282,-90,306,-218
1113,0,2022-09-30T20:57:07.699134,4192171,181,2238,-277,-1140,-1555,-282,-90,306,-218
1114,0,2022-09-30T20:57:07.706081,4192180,191,2237,-263,-1148,-1345,-254,-90,306,-218
1115,0,2022-09-30T20:57:07.715047,4192189,191,2237,-263,-1148,-1345,-254,-90,306,-218
1116,0,2022-09-30T20:57:07.722643,4192195,202,2233,-265,-1138,-1183,-216,-90,306,-218
1117,0,2022-09-30T20:57:07.734960,4192207,202,2233,-265,-1138,-1183,-216,-90,306,-218
1118,0,2022-09-30T20:57:07.740975,4192215,208,2232,-266,-1059,-931,-261,-90,306,-218
1119,0,2022-09-30T20:57:07.753949,4192228,208,2232,-266,-1059,-931,-261,-88,314,-210
1120,0,2022-09-30T20:57:07.759876,4192233,208,2232,-266,-1059,-931,-261,-88,314,-210
1121,0,2022-09-30T20:57:07.766721,4192240,198,2231,-277,-1015,-705,-353,-88,314,-210
1122,0,2022-09-30T20:57:07.776871,4192250,198,2231,-277,-1015,-705,-353,-88,314,-210
1123,0,2022-09-30T20:57:07.782844,4192257,202,2235,-274,-998,-456,-426,-88,314,-210
1124,0,2022-09-30T20:57:07.790770,4192265,202,2235,-274,-998,-456,-426,-88,314,-210
1125,0,2022-09-30T20:57:07.797574,4192271,202,2235,-274,-998,-456,-426,-88,314,-210
1126,0,2022-09-30T20:57:07.804272,4192278,191,2235,-275,-1000,-230,-450,-88,314,-210
1127,0,2022-09-30T20:57:07.812539,4192286,191,2235,-275,-1000,-230,-450,-88,314,-210
1128,0,2022-09-30T20:57:07.819160,4192292,191,2235,-275,-1000,-230,-450,-88,314,-210
1129,0,2022-09-30T20:57:07.827560,4192302,180,2236,-270,-996,-36,-424,-88,314,-210
1130,0,2022-09-30T20:57:07.837613,4192311,180,2236,-270,-996,-36,-424,-88,314,-210
1131,0,2022-09-30T20:57:07.843770,4192318,172,2235,-278,-1003,172,-424,-88,314,-210
1132,0,2022-09-30T20:57:07.851622,4192325,172,2235,-278,-1003,172,-424,-88,314,-210
1133,0,2022-09-30T20:57:07.856955,4192331,172,2235,-278,-1003,172,-424,-88,314,-210
1134,0,2022-09-30T20:57:07.862339,4192336,175,2235,-282,-996,406,-397,-91,311,-209
1135,0,2022-09-30T20:57:07.870119,4192345,175,2235,-282,-996,406,-397,-91,311,-209
1136,0,2022-09-30T20:57:07.875263,4192350,175,2235,-282,-996,406,-397,-91,311,-209
1137,0,2022-09-30T20:57:07.880535,4192355,175,2235,-282,-996,406,-397,-91,311,-209
1138,0,2022-09-30T20:57:07.886753,4192360,175,2235,-282,-996,406,-397,-91,311,-209
1139,0,2022-09-30T20:57:07.894702,4192368,175,2235,-282,-996,406,-397,-91,311,-209
1140,0,2022-09-30T20:57:07.902042,4192375,176,2240,-294,-921,978,-389,-91,311,-209
1141,0,2022-09-30T20:57:07.910573,4192385,176,2240,-294,-921,978,-389,-91,311,-209
1142,0,2022-09-30T20:57:07.915713,4192390,176,2240,-294,-921,978,-389,-91,311,-209
1143,0,2022-09-30T20:57:07.921725,4192395,150,2245,-291,-888,1210,-374,-91,311,-209
1144,0,2022-09-30T20:57:07.935181,4192409,150,2245,-291,-888,1210,-374,-91,311,-209
1145,0,2022-09-30T20:57:07.940409,4192414,145,2244,-284,-968,1414,-370,-91,311,-209
1146,0,2022-09-30T20:57:07.950369,4192423,145,2244,-284,-968,1414,-370,-91,311,-209
1147,0,2022-09-30T20:57:07.959246,4192432,145,2244,-284,-968,1414,-370,-91,311,-209
1148,0,2022-09-30T20:57:07.965094,4192439,137,2245,-276,-1008,1630,-347,-91,311,-209
1149,0,2022-09-30T20:57:07.974964,4192447,137,2245,-276,-1008,1630,-347,-91,311,-209
1150,0,2022-09-30T20:57:07.982188,4192456,137,2240,-275,-1029,1784,-295,-91,311,-209
1151,0,2022-09-30T20:57:07.990866,4192464,137,2240,-275,-1029,1784,-295,-91,311,-209
1152,0,2022-09-30T20:57:07.998085,4192471,137,2240,-275,-1029,1784,-295,-91,311,-209
1153,0,2022-09-30T20:57:08.006232,4192480,140,2243,-288,-1033,1931,-237,-97,321,-209
1154,0,2022-09-30T20:57:08.015343,4192489,140,2243,-288,-1033,1931,-237,-97,321,-209
1155,0,2022-09-30T20:57:08.022273,4192495,145,2252,-294,-1048,2121,-208,-97,321,-209
1156,0,2022-09-30T20:57:08.034686,4192508,145,2252,-294,-1048,2121,-208,-97,321,-209
1157,0,2022-09-30T20:57:08.040779,4192514,145,2252,-294,-1048,2121,-208,-97,321,-209
1158,0,2022-09-30T20:57:08.047355,4192520,154,2245,-280,-1143,2345,-210,-97,321,-209
1159,0,2022-09-30T20:57:08.057566,4192530,154,2245,-280,-1143,2345,-210,-97,321,-209
1160,0,2022-09-30T20:57:08.064465,4192537,149,2238,-274,-1161,2532,-178,-97,321,-209
1161,0,2022-09-30T20:57:08.076576,4192549,149,2238,-274,-1161,2532,-178,-97,321,-209
1162,0,2022-09-30T20:57:08.082579,4192556,145,2245,-282,-1067,2718,-109,-97,321,-209
1163,0,2022-09-30T20:57:08.091358,4192565,145,2245,-282,-1067,2718,-109,-97,321,-209
1164,0,2022-09-30T20:57:08.100143,4192572,145,2245,-282,-1067,2718,-109,-97,321,-209
1165,0,2022-09-30T20:57:08.105756,4192579,147,2247,-281,-1081,2936,-113,-97,321,-209
1166,0,2022-09-30T20:57:08.113256,4192587,147,2247,-281,-1081,2936,-113,-97,321,-209
1167,0,2022-09-30T20:57:08.120673,4192593,147,2247,-281,-1081,2936,-113,-97,321,-209
1168,0,2022-09-30T20:57:08.128493,4192602,153,2240,-267,-1096,3162,-65,-89,311,-223
1169,0,2022-09-30T20:57:08.135729,4192610,153,2240,-267,-1096,3162,-65,-89,311,-223
1170,0,2022-09-30T20:57:08.141471,4192616,164,2239,-271,-1014,3258,64,-89,311,-223
1171,0,2022-09-30T20:57:08.151807,4192625,164,2239,-271,-1014,3258,64,-89,311,-223
1172,0,2022-09-30T20:57:08.157298,4192631,164,2239,-271,-1014,3258,64,-89,311,-223
1173,0,2022-09-30T20:57:08.162743,4192636,170,2228,-293,-1055,3345,112,-89,311,-223
1174,0,2022-09-30T20:57:08.168859,4192642,170,2228,-293,-1055,3345,112,-89,311,-223
1175,0,2022-09-30T20:57:08.175209,4192649,170,2228,-293,-1055,3345,112,-89,311,-223
1176,0,2022-09-30T20:57:08.180640,4192654,170,2228,-293,-1055,3345,112,-89,311,-223
1177,0,2022-09-30T20:57:08.188745,4192662,163,2231,-313,-1050,3571,93,-89,311,-223
1178,0,2022-09-30T20:57:08.196466,4192669,163,2231,-313,-1050,3571,93,-89,311,-223
1179,0,2022-09-30T20:57:08.203395,4192677,154,2241,-304,-1051,3902,-16,-89,311,-223
1180,0,2022-09-30T20:57:08.212188,4192686,154,2241,-304,-1051,3902,-16,-89,311,-223
1181,0,2022-09-30T20:57:08.218464,4192692,154,2241,-304,-1051,3902,-16,-89,311,-223
1182,0,2022-09-30T20:57:08.225394,4192699,154,2246,-301,-1090,4129,-63,-89,311,-223
1183,0,2022-09-30T20:57:08.232063,4192706,154,2246,-301,-1090,4129,-63,-89,311,-223
1184,0,2022-09-30T20:57:08.237771,4192711,154,2246,-301,-1090,4129,-63,-89,311,-223
1185,0,2022-09-30T20:57:08.243044,4192717,145,2239,-299,-1108,4248,-10,-89,311,-223
1186,0,2022-09-30T20:57:08.255772,4192730,145,2239,-299,-1108,4248,-10,-89,311,-223
1187,0,2022-09-30T20:57:08.261477,4192735,144,2247,-298,-1114,4419,64,-91,313,-233
1188,0,2022-09-30T20:57:08.269294,4192743,144,2247,-298,-1114,4419,64,-91,313,-233
1189,0,2022-09-30T20:57:08.277856,4192751,144,2247,-298,-1114,4419,64,-91,313,-233
1190,0,2022-09-30T20:57:08.284156,4192758,132,2244,-297,-1149,4625,42,-91,313,-233
1191,0,2022-09-30T20:57:08.292362,4192765,132,2244,-297,-1149,4625,42,-91,313,-233
1192,0,2022-09-30T20:57:08.299868,4192773,132,2244,-297,-1149,4625,42,-91,313,-233
1193,0,2022-09-30T20:57:08.306214,4192780,123,2238,-305,-1160,4796,20,-91,313,-233
1194,0,2022-09-30T20:57:08.314078,4192787,123,2238,-305,-1160,4796,20,-91,313,-233
1195,0,2022-09-30T20:57:08.320749,4192793,123,2238,-305,-1160,4796,20,-91,313,-233
1196,0,2022-09-30T20:57:08.331206,4192804,138,2242,-303,-1172,4945,55,-91,313,-233
1197,0,2022-09-30T20:57:08.339227,4192813,138,2242,-303,-1172,4945,55,-91,313,-233
1198,0,2022-09-30T20:57:08.346690,4192819,133,2244,-304,-1160,5153,29,-91,313,-233
1199,0,2022-09-30T20:57:08.357695,4192832,133,2244,-304,-1160,5153,29,-91,313,-233
1200,0,2022-09-30T20:57:08.364443,4192837,122,2245,-294,-1190,5393,21,-91,313,-233
1201,0,2022-09-30T20:57:08.375024,4192847,122,2245,-294,-1190,5393,21,-91,313,-233
1202,0,2022-09-30T20:57:08.383720,4192857,112,2240,-275,-1183,5586,56,-95,315,-247
1203,0,2022-09-30T20:57:08.393973,4192867,112,2240,-275,-1183,5586,56,-95,315,-247
1204,0,2022-09-30T20:57:08.400750,4192874,112,2240,-275,-1183,5586,56,-95,315,-247
1205,0,2022-09-30T20:57:08.410468,4192883,111,2242,-295,-1163,5682,82,-95,315,-247
1206,0,2022-09-30T20:57:08.416286,4192889,111,2242,-295,-1163,5682,82,-95,315,-247
1207,0,2022-09-30T20:57:08.422700,4192896,105,2243,-292,-1223,5821,65,-95,315,-247
1208,0,2022-09-30T20:57:08.433333,4192908,105,2243,-292,-1223,5821,65,-95,315,-247
1209,0,2022-09-30T20:57:08.440104,4192913,105,2243,-292,-1223,5821,65,-95,315,-247
1210,0,2022-09-30T20:57:08.450857,4192924,107,2246,-286,-1212,6056,97,-95,315,-247
1211,0,2022-09-30T20:57:08.457601,4192931,107,2246,-286,-1212,6056,97,-95,315,-247
1212,0,2022-09-30T20:57:08.462862,4192936,104,2248,-289,-1199,6228,115,-95,315,-247
1213,0,2022-09-30T20:57:08.470925,4192944,104,2248,-289,-1199,6228,115,-95,315,-247
1214,0,2022-09-30T20:57:08.478377,4192952,104,2248,-289,-1199,6228,115,-95,315,-247
1215,0,2022-09-30T20:57:08.483735,4192958,99,2241,-297,-1216,6338,111,-95,315,-247
1216,0,2022-09-30T20:57:08.491234,4192965,99,2241,-297,-1216,6338,111,-95,315,-247
1217,0,2022-09-30T20:57:08.497725,4192970,99,2241,-297,-1216,6338,111,-95,315,-247
1218,0,2022-09-30T20:57:08.503856,4192977,107,2236,-298,-1254,6478,121,-92,312,-254
1219,0,2022-09-30T20:57:08.513377,4192988,107,2236,-298,-1254,6478,121,-92,312,-254
1220,0,2022-09-30T20:57:08.520320,4192994,107,2236,-298,-1254,6478,121,-92,312,-254
1221,0,2022-09-30T20:57:08.530839,4193004,112,2231,-287,-1247,6624,173,-92,312,-254
1222,0,2022-09-30T20:57:08.537453,4193011,112,2231,-287,-1247,6624,173,-92,312,-254
1223,0,2022-09-30T20:57:08.542784,4193016,122,2236,-304,-1207,6790,235,-92,312,-254
1224,0,2022-09-30T20:57:08.555656,4193030,122,2236,-304,-1207,6790,235,-92,312,-254
1225,0,2022-09-30T20:57:08.560806,4193035,122,2236,-304,-1207,6790,235,-92,312,-254
1226,0,2022-09-30T20:57:08.566781,4193041,122,2242,-308,-1174,6968,239,-92,312,-254
1227,0,2022-09-30T20:57:08.574346,4193048,122,2242,-308,-1174,6968,239,-92,312,-254
1228,0,2022-09-30T20:57:08.580650,4193054,122,2242,-308,-1174,6968,239,-92,312,-254
1229,0,2022-09-30T20:57:08.588311,4193062,116,2246,-313,-1197,7169,178,-92,312,-254
1230,0,2022-09-30T20:57:08.596179,4193069,116,2246,-313,-1197,7169,178,-92,312,-254
1231,0,2022-09-30T20:57:08.603097,4193077,107,2237,-305,-1242,7335,123,-92,312,-254
1232,0,2022-09-30T20:57:08.612541,4193087,107,2237,-305,-1242,7335,123,-92,312,-254
1233,0,2022-09-30T20:57:08.617943,4193092,107,2237,-305,-1242,7335,123,-92,312,-254
1234,0,2022-09-30T20:57:08.625984,4193099,106,2231,-302,-1274,7461,131,-92,312,-254
1235,0,2022-09-30T20:57:08.635505,4193110,106,2231,-302,-1274,7461,131,-92,312,-254
1236,0,2022-09-30T20:57:08.640892,4193115,106,2231,-302,-1274,7461,131,-92,312,-254
1237,0,2022-09-30T20:57:08.650630,4193124,109,2231,-296,-1285,7551,180,-93,305,-269
1238,0,2022-09-30T20:57:08.658505,4193132,109,2231,-296,-1285,7551,180,-93,305,-269
1239,0,2022-09-30T20:57:08.663888,4193138,106,2236,-300,-1276,7704,191,-93,305,-269
1240,0,2022-09-30T20:57:08.672300,4193145,106,2236,-300,-1276,7704,191,-93,305,-269
1241,0,2022-09-30T20:57:08.680290,4193155,106,2236,-300,-1276,7704,191,-93,305,-269
1242,0,2022-09-30T20:57:08.688141,4193162,89,2240,-302,-1256,7883,160,-93,305,-269
1243,0,2022-09-30T20:57:08.695502,4193169,89,2240,-302,-1256,7883,160,-93,305,-269
1244,0,2022-09-30T20:57:08.701730,4193175,76,2242,-294,-1270,8044,134,-93,305,-269
1245,0,2022-09-30T20:57:08.711742,4193185,76,2242,-294,-1270,8044,134,-93,305,-269
1246,0,2022-09-30T20:57:08.718447,4193191,76,2242,-294,-1270,8044,134,-93,305,-269
1247,0,2022-09-30T20:57:08.727025,4193200,74,2237,-284,-1302,8154,164,-93,305,-269
1248,0,2022-09-30T20:57:08.735082,4193209,74,2237,-284,-1302,8154,164,-93,305,-269
1249,0,2022-09-30T20:57:08.741012,4193214,74,2237,-284,-1302,8154,164,-93,305,-269
1250,0,2022-09-30T20:57:08.747926,4193220,71,2233,-286,-1308,8243,200,-93,305,-269
1251,0,2022-09-30T20:57:08.756614,4193229,71,2233,-286,-1308,8243,200,-93,305,-269
1252,0,2022-09-30T20:57:08.763179,4193236,64,2237,-281,-1314,8317,217,-95,291,-293
1253,0,2022-09-30T20:57:08.772733,4193246,64,2237,-281,-1314,8317,217,-95,291,-293
1254,0,2022-09-30T20:57:08.780311,4193253,64,2237,-281,-1314,8317,217,-95,291,-293
1255,0,2022-09-30T20:57:08.788382,4193262,54,2234,-279,-1308,8414,185,-95,291,-293
1256,0,2022-09-30T20:57:08.797203,4193269,54,2234,-279,-1308,8414,185,-95,291,-293
1257,0,2022-09-30T20:57:08.804509,4193277,40,2233,-275,-1258,8528,162,-95,291,-293
1258,0,2022-09-30T20:57:08.815166,4193289,40,2233,-275,-1258,8528,162,-95,291,-293
1259,0,2022-09-30T20:57:08.821006,4193295,40,2233,-275,-1258,8528,162,-95,291,-293
1260,0,2022-09-30T20:57:08.828015,4193302,38,2237,-286,-1182,8613,160,-95,291,-293
1261,0,2022-09-30T20:57:08.835223,4193309,38,2237,-286,-1182,8613,160,-95,291,-293
1262,0,2022-09-30T20:57:08.841286,4193315,38,2237,-286,-1182,8613,160,-95,291,-293
1263,0,2022-09-30T20:57:08.847339,4193320,53,2248,-291,-1192,8664,193,-95,291,-293
1264,0,2022-09-30T20:57:08.854744,4193328,53,2248,-291,-1192,8664,193,-95,291,-293
1265,0,2022-09-30T20:57:08.860264,4193334,53,2248,-291,-1192,8664,193,-95,291,-293
1266,0,2022-09-30T20:57:08.871902,4193344,54,2243,-287,-1231,8779,193,-95,291,-293
1267,0,2022-09-30T20:57:08.880646,4193354,54,2243,-287,-1231,8779,193,-95,291,-293
1268,0,2022-09-30T20:57:08.888577,4193362,48,2242,-286,-1147,8868,243,-95,291,-293
1269,0,2022-09-30T20:57:08.896463,4193369,48,2242,-286,-1147,8868,243,-95,291,-293
1270,0,2022-09-30T20:57:08.903052,4193377,56,2235,-310,-1091,8783,294,-103,277,-315
1271,0,2022-09-30T20:57:08.912033,4193386,56,2235,-310,-1091,8783,294,-103,277,-315
1272,0,2022-09-30T20:57:08.917187,4193391,56,2235,-310,-1091,8783,294,-103,277,-315
1273,0,2022-09-30T20:57:08.925389,4193397,78,2229,-329,-1151,8780,304,-103,277,-315
1274,0,2022-09-30T20:57:08.934386,4193409,78,2229,-329,-1151,8780,304,-103,277,-315
1275,0,2022-09-30T20:57:08.938942,4193414,78,2229,-329,-1151,8780,304,-103,277,-315
1276,0,2022-09-30T20:57:08.945395,4193418,79,2230,-327,-1234,9005,235,-103,277,-315
1277,0,2022-09-30T20:57:08.957328,4193431,79,2230,-327,-1234,9005,235,-103,277,-315
1278,0,2022-09-30T20:57:08.963388,4193437,60,2240,-325,-1251,9273,137,-103,277,-315
1279,0,2022-09-30T20:57:08.972817,4193445,60,2240,-325,-1251,9273,137,-103,277,-315
1280,0,2022-09-30T20:57:08.978434,4193453,60,2240,-325,-1251,9273,137,-103,277,-315
1281,0,2022-09-30T20:57:08.984157,4193458,34,2245,-318,-1286,9378,126,-103,277,-315
1282,0,2022-09-30T20:57:08.993067,4193466,34,2245,-318,-1286,9378,126,-103,277,-315
1283,0,2022-09-30T20:57:09.001567,4193475,34,2245,-318,-1286,9378,126,-103,277,-315
1284,0,2022-09-30T20:57:09.010207,4193484,22,2245,-314,-1331,9366,166,-103,277,-315
1285,0,2022-09-30T20:57:09.015279,4193489,22,2245,-314,-1331,9366,166,-103,277,-315
1286,0,2022-09-30T20:57:09.022219,4193496,22,2245,-314,-1331,9366,166,-103,277,-315
1287,0,2022-09-30T20:57:09.030628,4193505,22,2240,-293,-1400,9323,229,-99,267,-325
1288,0,2022-09-30T20:57:09.038545,4193512,22,2240,-293,-1400,9323,229,-99,267,-325
1289,0,2022-09-30T20:57:09.044485,4193518,29,2240,-287,-1459,9347,268,-99,267,-325
1290,0,2022-09-30T20:57:09.050805,4193524,29,2240,-287,-1459,9347,268,-99,267,-325
1291,0,2022-09-30T20:57:09.057550,4193531,29,2240,-287,-1459,9347,268,-99,267,-325
1292,0,2022-09-30T20:57:09.062742,4193537,20,2237,-286,-1422,9390,293,-99,267,-325
1293,0,2022-09-30T20:57:09.072095,4193545,20,2237,-286,-1422,9390,293,-99,267,-325
1294,0,2022-09-30T20:57:09.078735,4193553,20,2237,-286,-1422,9390,293,-99,267,-325
1295,0,2022-09-30T20:57:09.085048,4193559,9,2243,-297,-1375,9411,286,-99,267,-325
1296,0,2022-09-30T20:57:09.093770,4193567,9,2243,-297,-1375,9411,286,-99,267,-325
1297,0,2022-09-30T20:57:09.099076,4193573,9,2243,-297,-1375,9411,286,-99,267,-325
1298,0,2022-09-30T20:57:09.104357,4193579,15,2238,-291,-1399,9437,254,-99,267,-325
1299,0,2022-09-30T20:57:09.111809,4193586,15,2238,-291,-1399,9437,254,-99,267,-325
1300,0,2022-09-30T20:57:09.116715,4193591,15,2238,-291,-1399,9437,254,-99,267,-325
1301,0,2022-09-30T20:57:09.121917,4193596,23,2236,-272,-1377,9546,242,-99,267,-325
1302,0,2022-09-30T20:57:09.132395,4193605,23,2236,-272,-1377,9546,242,-99,267,-325
1303,0,2022-09-30T20:57:09.138924,4193612,23,2236,-272,-1377,9546,242,-99,267,-325
1304,0,2022-09-30T20:57:09.144912,4193618,32,2229,-278,-1292,9519,315,-106,248,-342
1305,0,2022-09-30T20:57:09.155390,4193629,32,2229,-278,-1292,9519,315,-106,248,-342
1306,0,2022-09-30T20:57:09.160954,4193635,32,2229,-278,-1292,9519,315,-106,248,-342
1307,0,2022-09-30T20:57:09.168072,4193642,21,2241,-295,-1305,9502,328,-106,248,-342
1308,0,2022-09-30T20:57:09.176351,4193650,21,2241,-295,-1305,9502,328,-106,248,-342
1309,0,2022-09-30T20:57:09.182534,4193656,-2,2237,-290,-1340,9639,243,-106,248,-342
1310,0,2022-09-30T20:57:09.191088,4193665,-2,2237,-290,-1340,9639,243,-106,248,-342
1311,0,2022-09-30T20:57:09.197054,4193671,-2,2237,-290,-1340,9639,243,-106,248,-342
1312,0,2022-09-30T20:57:09.204877,4193678,4,2240,-275,-1308,9700,222,-106,248,-342
1313,0,2022-09-30T20:57:09.213943,4193688,4,2240,-275,-1308,9700,222,-106,248,-342
1314,0,2022-09-30T20:57:09.222021,4193693,4,2240,-275,-1308,9700,222,-106,248,-342
1315,0,2022-09-30T20:57:09.229725,4193702,-2,2234,-279,-1311,9611,231,-106,248,-342
1316,0,2022-09-30T20:57:09.238155,4193712,-2,2234,-279,-1311,9611,231,-106,248,-342
1317,0,2022-09-30T20:57:09.244967,4193718,1,2230,-291,-1329,9600,245,-106,248,-342
1318,0,2022-09-30T20:57:09.256209,4193729,1,2230,-291,-1329,9600,245,-106,248,-342
1319,0,2022-09-30T20:57:09.262336,4193736,1,2230,-291,-1329,9600,245,-106,248,-342
1320,0,2022-09-30T20:57:09.269218,4193741,4,2233,-279,-1336,9618,256,-106,248,-342
1321,0,2022-09-30T20:57:09.282719,4193756,4,2233,-279,-1336,9618,256,-106,248,-342
1322,0,2022-09-30T20:57:09.290300,4193764,-5,2246,-264,-1349,9665,284,-111,233,-347
1323,0,2022-09-30T20:57:09.301129,4193774,-5,2246,-264,-1349,9665,284,-111,233,-347
1324,0,2022-09-30T20:57:09.307733,4193781,-16,2236,-252,-1384,9679,314,-111,233,-347
1325,0,2022-09-30T20:57:09.314591,4193788,-16,2236,-252,-1384,9679,314,-111,233,-347
1326,0,2022-09-30T20:57:09.320558,4193794,-16,2236,-252,-1384,9679,314,-111,233,-347
1327,0,2022-09-30T20:57:09.330091,4193804,-20,2242,-267,-1366,9627,390,-111,233,-347
1328,0,2022-09-30T20:57:09.336774,4193811,-20,2242,-267,-1366,9627,390,-111,233,-347
1329,0,2022-09-30T20:57:09.342100,4193816,-20,2242,-267,-1366,9627,390,-111,233,-347
1330,0,2022-09-30T20:57:09.350066,4193823,-3,2218,-265,-1482,9446,454,-111,233,-347
1331,0,2022-09-30T20:57:09.357320,4193831,-3,2218,-265,-1482,9446,454,-111,233,-347
1332,0,2022-09-30T20:57:09.362915,4193837,71,2237,-233,-1593,9420,638,-111,233,-347
1333,0,2022-09-30T20:57:09.372477,4193845,71,2237,-233,-1593,9420,638,-111,233,-347
1334,0,2022-09-30T20:57:09.380326,4193854,71,2237,-233,-1593,9420,638,-111,233,-347
1335,0,2022-09-30T20:57:09.387917,4193861,51,2231,-249,-1505,9357,546,-111,233,-347
1336,0,2022-09-30T20:57:09.394817,4193868,51,2231,-249,-1505,9357,546,-111,233,-347
1337,0,2022-09-30T20:57:09.402069,4193876,51,2231,-249,-1505,9357,546,-111,233,-347
1338,0,2022-09-30T20:57:09.410586,4193885,-10,2229,-275,-1237,9436,317,-101,217,-345
1339,0,2022-09-30T20:57:09.416903,4193891,-10,2229,-275,-1237,9436,317,-101,217,-345
1340,0,2022-09-30T20:57:09.423426,4193896,-10,2229,-275,-1237,9436,317,-101,217,-345
1341,0,2022-09-30T20:57:09.433437,4193906,2,2246,-261,-1117,9609,207,-101,217,-345
1342,0,2022-09-30T20:57:09.440638,4193914,2,2246,-261,-1117,9609,207,-101,217,-345
1343,0,2022-09-30T20:57:09.448031,4193921,49,2235,-218,-1330,9541,275,-101,217,-345
1344,0,2022-09-30T20:57:09.456835,4193931,49,2235,-218,-1330,9541,275,-101,217,-345
1345,0,2022-09-30T20:57:09.462264,4193936,49,2235,-218,-1330,9541,275,-101,217,-345
1346,0,2022-09-30T20:57:09.468886,4193942,28,2212,-220,-1280,9424,283,-101,217,-345
1347,0,2022-09-30T20:57:09.480221,4193952,28,2212,-220,-1280,9424,283,-101,217,-345
1348,0,2022-09-30T20:57:09.485812,4193959,-16,2212,-226,-1133,9444,209,-101,217,-345
1349,0,2022-09-30T20:57:09.493036,4193967,-16,2212,-226,-1133,9444,209,-101,217,-345
1350,0,2022-09-30T20:57:09.499284,4193973,-16,2212,-226,-1133,9444,209,-101,217,-345
1351,0,2022-09-30T20:57:09.507773,4193982,-30,2216,-224,-1078,9460,191,-101,217,-345
1352,0,2022-09-30T20:57:09.515430,4193989,-30,2216,-224,-1078,9460,191,-101,217,-345
1353,0,2022-09-30T20:57:09.521273,4193995,-30,2216,-224,-1078,9460,191,-101,217,-345
1354,0,2022-09-30T20:57:09.531113,4194006,-18,2220,-224,-1007,9351,217,-101,217,-345
1355,0,2022-09-30T20:57:09.540525,4194014,-18,2220,-224,-1007,9351,217,-101,217,-345
1356,0,2022-09-30T20:57:09.551027,4194024,-3,2224,-232,-951,9256,248,-116,184,-346
1357,0,2022-09-30T20:57:09.560512,4194034,-3,2224,-232,-951,9256,248,-116,184,-346
1358,0,2022-09-30T20:57:09.566628,4194040,-5,2256,-228,-852,9352,269,-116,184,-346
1359,0,2022-09-30T20:57:09.579089,4194053,-5,2256,-228,-852,9352,269,-116,184,-346
1360,0,2022-09-30T20:57:09.585066,4194059,-13,2249,-243,-623,9310,322,-116,184,-346
1361,0,2022-09-30T20:57:09.594563,4194067,-13,2249,-243,-623,9310,322,-116,184,-346
1362,0,2022-09-30T20:57:09.605515,4194079,-12,2237,-334,-130,8935,303,-116,184,-346
1363,0,2022-09-30T20:57:09.616555,4194089,-12,2237,-334,-130,8935,303,-116,184,-346
1364,0,2022-09-30T20:57:09.623149,4194096,-12,2237,-334,-130,8935,303,-116,184,-346
1365,0,2022-09-30T20:57:09.630145,4194104,29,2225,-358,-273,8637,139,-116,184,-346
1366,0,2022-09-30T20:57:09.637722,4194111,29,2225,-358,-273,8637,139,-116,184,-346
1367,0,2022-09-30T20:57:09.643916,4194117,62,2212,-337,-852,8548,-40,-116,184,-346
1368,0,2022-09-30T20:57:09.659123,4194131,62,2212,-337,-852,8548,-40,-116,184,-346
1369,0,2022-09-30T20:57:09.665200,4194139,76,2219,-358,-847,8463,51,-107,167,-345
1370,0,2022-09-30T20:57:09.673081,4194145,76,2219,-358,-847,8463,51,-107,167,-345
1371,0,2022-09-30T20:57:09.680760,4194154,76,2219,-358,-847,8463,51,-107,167,-345
1372,0,2022-09-30T20:57:09.689319,4194162,78,2228,-412,-656,8477,185,-107,167,-345
1373,0,2022-09-30T20:57:09.698914,4194171,78,2228,-412,-656,8477,185,-107,167,-345
1374,0,2022-09-30T20:57:09.706095,4194180,97,2249,-427,-630,8642,303,-107,167,-345
1375,0,2022-09-30T20:57:09.715561,4194190,97,2249,-427,-630,8642,303,-107,167,-345
1376,0,2022-09-30T20:57:09.721568,4194195,97,2249,-427,-630,8642,303,-107,167,-345
1377,0,2022-09-30T20:57:09.731761,4194206,69,2213,-393,-798,8760,249,-107,167,-345
1378,0,2022-09-30T20:57:09.738121,4194212,69,2213,-393,-798,8760,249,-107,167,-345
1379,0,2022-09-30T20:57:09.744019,4194217,63,2216,-401,-740,8888,162,-107,167,-345
1380,0,2022-09-30T20:57:09.755970,4194230,63,2216,-401,-740,8888,162,-107,167,-345
1381,0,2022-09-30T20:57:09.762441,4194236,63,2216,-401,-740,8888,162,-107,167,-345
1382,0,2022-09-30T20:57:09.769617,4194243,61,2244,-406,-708,8972,146,-107,167,-345
1383,0,2022-09-30T20:57:09.780013,4194254,61,2244,-406,-708,8972,146,-107,167,-345
1384,0,2022-09-30T20:57:09.787928,4194263,53,2248,-403,-808,8963,127,-107,167,-345
1385,0,2022-09-30T20:57:09.794632,4194269,53,2248,-403,-808,8963,127,-107,167,-345
1386,0,2022-09-30T20:57:09.803759,4194277,14,2248,-370,-974,8927,8,-107,167,-345
1387,0,2022-09-30T20:57:09.812967,4194287,14,2248,-370,-974,8927,8,-108,152,-348
1388,0,2022-09-30T20:57:09.819479,4194292,14,2248,-370,-974,8927,8,-108,152,-348
1389,0,2022-09-30T20:57:09.827322,4194301,-15,2265,-345,-1041,8890,59,-108,152,-348
1390,0,2022-09-30T20:57:09.837121,4194312,-15,2265,-345,-1041,8890,59,-108,152,-348
1391,0,2022-09-30T20:57:09.842791,4194317,-15,2265,-345,-1041,8890,59,-108,152,-348
1392,0,2022-09-30T20:57:09.852510,4194326,-25,2279,-344,-1004,8743,90,-108,152,-348
1393,0,2022-09-30T20:57:09.861609,4194334,-25,2279,-344,-1004,8743,90,-108,152,-348
1394,0,2022-09-30T20:57:09.871930,4194344,-46,2269,-347,-1133,8384,25,-108,152,-348
1395,0,2022-09-30T20:57:09.879270,4194353,-46,2269,-347,-1133,8384,25,-108,152,-348
1396,0,2022-09-30T20:57:09.885095,4194359,-59,2278,-356,-1285,8109,19,-108,152,-348
1397,0,2022-09-30T20:57:09.894126,4194367,-59,2278,-356,-1285,8109,19,-108,152,-348
1398,0,2022-09-30T20:57:09.903316,4194376,-59,2278,-356,-1285,8109,19,-108,152,-348
1399,0,2022-09-30T20:57:09.912313,4194385,-65,2269,-321,-1551,8197,-217,-108,152,-348
1400,0,2022-09-30T20:57:09.921561,4194394,-65,2269,-321,-1551,8197,-217,-108,152,-348
1401,0,2022-09-30T20:57:09.929149,4194403,-65,2262,-284,-1619,8109,-307,-106,128,-346
1402,0,2022-09-30T20:57:09.939707,4194413,-65,2262,-284,-1619,8109,-307,-106,128,-346
1403,0,2022-09-30T20:57:09.947165,4194420,-78,2242,-284,-1638,7729,-238,-106,128,-346
1404,0,2022-09-30T20:57:09.959893,4194433,-78,2242,-284,-1638,7729,-238,-106,128,-346
1405,0,2022-09-30T20:57:09.965653,4194440,-43,2241,-258,-1794,7396,-75,-106,128,-346
1406,0,2022-09-30T20:57:09.976014,4194449,-43,2241,-258,-1794,7396,-75,-106,128,-346
1407,0,2022-09-30T20:57:09.982467,4194456,-43,2241,-258,-1794,7396,-75,-106,128,-346
1408,0,2022-09-30T20:57:09.990894,4194465,-13,2240,-227,-1898,7166,26,-106,128,-346
1409,0,2022-09-30T20:57:10.000001,4194473,-13,2240,-227,-1898,7166,26,-106,128,-346
1410,0,2022-09-30T20:57:10.005966,4194480,-37,2248,-237,-1721,6969,37,-106,128,-346
1411,0,2022-09-30T20:57:10.015501,4194490,-37,2248,-237,-1721,6969,37,-106,128,-346
1412,0,2022-09-30T20:57:10.022909,4194496,-37,2248,-237,-1721,6969,37,-106,128,-346
1413,0,2022-09-30T20:57:10.030591,4194504,-63,2254,-243,-1544,6832,-87,-106,128,-346
1414,0,2022-09-30T20:57:10.038948,4194513,-63,2254,-243,-1544,6832,-87,-106,128,-346
1415,0,2022-09-30T20:57:10.044615,4194519,-63,2241,-237,-1477,6538,-160,-114,112,-326
1416,0,2022-09-30T20:57:10.056516,4194530,-63,2241,-237,-1477,6538,-160,-114,112,-326
1417,0,2022-09-30T20:57:10.063214,4194537,-63,2241,-237,-1477,6538,-160,-114,112,-326
1418,0,2022-09-30T20:57:10.070918,4194544,-63,2241,-237,-1477,6538,-160,-114,112,-326
1419,0,2022-09-30T20:57:10.076859,4194550,-63,2241,-237,-1477,6538,-160,-114,112,-326
1420,0,2022-09-30T20:57:10.082673,4194556,-63,2241,-237,-1477,6538,-160,-114,112,-326
1421,0,2022-09-30T20:57:10.088889,4194562,21,2219,-238,-1464,6047,30,-114,112,-326
1422,0,2022-09-30T20:57:10.096226,4194570,21,2219,-238,-1464,6047,30,-114,112,-326
1423,0,2022-09-30T20:57:10.102384,4194576,21,2219,-238,-1464,6047,30,-114,112,-326
1424,0,2022-09-30T20:57:10.109690,4194584,23,2227,-272,-1325,5889,125,-114,112,-326
1425,0,2022-09-30T20:57:10.117776,4194590,23,2227,-272,-1325,5889,125,-114,112,-326
1426,0,2022-09-30T20:57:10.124435,4194598,-3,2231,-272,-1341,5807,99,-114,112,-326
1427,0,2022-09-30T20:57:10.132977,4194607,-3,2231,-272,-1341,5807,99,-114,112,-326
1428,0,2022-09-30T20:57:10.138719,4194613,-3,2231,-272,-1341,5807,99,-114,112,-326
1429,0,2022-09-30T20:57:10.144731,4194618,1,2227,-248,-1392,5648,94,-114,112,-326
1430,0,2022-09-30T20:57:10.157900,4194631,1,2227,-248,-1392,5648,94,-114,112,-326
1431,0,2022-09-30T20:57:10.163630,4194637,26,2228,-250,-1424,5330,137,-114,112,-326
1432,0,2022-09-30T20:57:10.173408,4194646,26,2228,-250,-1424,5330,137,-114,112,-326
