,imu,server_time,arduino_time,ax,ay,az,gx,gy,gz,mx,my,mz
0,2,2022-09-30T20:56:59.957058,4184429,0,0,0,0,0,0,0,0,0
1,2,2022-09-30T20:56:59.968284,4184440,0,0,0,0,0,0,0,0,0
2,2,2022-09-30T20:56:59.974370,4184448,0,0,0,0,0,0,0,0,0
3,2,2022-09-30T20:56:59.980315,4184454,0,0,0,0,0,0,0,0,0
4,2,2022-09-30T20:56:59.985871,4184459,0,0,0,0,0,0,0,0,0
5,2,2022-09-30T20:56:59.992244,4184465,0,0,0,0,0,0,0,0,0
6,2,2022-09-30T20:56:59.999992,4184473,0,0,0,0,0,0,0,0,0
7,2,2022-09-30T20:57:00.005977,4184479,0,0,0,0,0,0,0,0,0
8,2,2022-09-30T20:57:00.012149,4184484,0,0,0,0,0,0,0,0,0
9,2,2022-09-30T20:57:00.020186,4184493,0,0,0,0,0,0,0,0,0
10,2,2022-09-30T20:57:00.028961,4184502,0,0,0,0,0,0,0,0,0
11,2,2022-09-30T20:57:00.035804,4184508,0,0,0,0,0,0,0,0,0
12,2,2022-09-30T20:57:00.042133,4184515,0,0,0,0,0,0,0,0,0
13,2,2022-09-30T20:57:00.051006,4184521,0,0,0,0,0,0,0,0,0
14,2,2022-09-30T20:57:00.056107,4184529,0,0,0,0,0,0,0,0,0
15,2,2022-09-30T20:57:00.062594,4184536,0,0,0,0,0,0,0,0,0
16,2,2022-09-30T20:57:00.069418,4184543,0,0,0,0,0,0,0,0,0
17,2,2022-09-30T20:57:00.074947,4184548,0,0,0,0,0,0,0,0,0
18,2,2022-09-30T20:57:00.081568,4184555,0,0,0,0,0,0,0,0,0
19,2,2022-09-30T20:57:00.087198,4184560,0,0,0,0,0,0,0,0,0
20,2,2022-09-30T20:57:00.093154,4184566,0,0,0,0,0,0,0,0,0
21,2,2022-09-30T20:57:00.098866,4184572,0,0,0,0,0,0,0,0,0
22,2,2022-09-30T20:57:00.104135,4184578,0,0,0,0,0,0,0,0,0
23,2,2022-09-30T20:57:00.109301,4184583,0,0,0,0,0,0,0,0,0
24,2,2022-09-30T20:57:00.115151,4184588,0,0,0,0,0,0,0,0,0
25,2,2022-09-30T20:57:00.123253,4184596,0,0,0,0,0,0,0,0,0
26,2,2022-09-30T20:57:00.128882,4184602,0,0,0,0,0,0,0,0,0
27,2,2022-09-30T20:57:00.134213,4184607,0,0,0,0,0,0,0,0,0
28,2,2022-09-30T20:57:00.141604,4184614,0,0,0,0,0,0,0,0,0
29,2,2022-09-30T20:57:00.148194,4184621,0,0,0,0,0,0,0,0,0
30,2,2022-09-30T20:57:00.153307,4184627,0,0,0,0,0,0,0,0,0
31,2,2022-09-30T20:57:00.158837,4184632,0,0,0,0,0,0,0,0,0
32,2,2022-09-30T20:57:00.164553,4184638,0,0,0,0,0,0,0,0,0
33,2,2022-09-30T20:57:00.171108,4184644,0,0,0,0,0,0,0,0,0
34,2,2022-09-30T20:57:00.176722,4184650,0,0,0,0,0,0,0,0,0
35,2,2022-09-30T20:57:00.184195,4184657,0,0,0,0,0,0,0,0,0
36,2,2022-09-30T20:57:00.189725,4184663,0,0,0,0,0,0,0,0,0
37,2,2022-09-30T20:57:00.203667,4184677,0,0,0,0,0,0,0,0,0
38,2,2022-09-30T20:57:00.209354,4184682,0,0,0,0,0,0,0,0,0
39,2,2022-09-30T20:57:00.214785,4184688,0,0,0,0,0,0,0,0,0
40,2,2022-09-30T20:57:00.220794,4184693,0,0,0,0,0,0,0,0,0
41,2,2022-09-30T20:57:00.226442,4184699,0,0,0,0,0,0,0,0,0
42,2,2022-09-30T20:57:00.231862,4184706,0,0,0,0,0,0,0,0,0
43,2,2022-09-30T20:57:00.239271,4184713,0,0,0,0,0,0,0,0,0
44,2,2022-09-30T20:57:00.247601,4184721,0,0,0,0,0,0,0,0,0
45,2,2022-09-30T20:57:00.252810,4184726,0,0,0,0,0,0,0,0,0
46,2,2022-09-30T20:57:00.259622,4184733,0,0,0,0,0,0,0,0,0
47,2,2022-09-30T20:57:00.265636,4184738,0,0,0,0,0,0,0,0,0
48,2,2022-09-30T20:57:00.271263,4184744,0,0,0,0,0,0,0,0,0
49,2,2022-09-30T20:57:00.276702,4184751,0,0,0,0,0,0,0,0,0
50,2,2022-09-30T20:57:00.283141,4184757,0,0,0,0,0,0,0,0,0
51,2,2022-09-30T20:57:00.288704,4184762,0,0,0,0,0,0,0,0,0
52,2,2022-09-30T20:57:00.294919,4184768,0,0,0,0,0,0,0,0,0
53,2,2022-09-30T20:57:00.302449,4184776,0,0,0,0,0,0,0,0,0
54,2,2022-09-30T20:57:00.308235,4184781,0,0,0,0,0,0,0,0,0
55,2,2022-09-30T20:57:00.313538,4184786,0,0,0,0,0,0,0,0,0
56,2,2022-09-30T20:57:00.319928,4184793,0,0,0,0,0,0,0,0,0
57,2,2022-09-30T20:57:00.325653,4184799,0,0,0,0,0,0,0,0,0
58,2,2022-09-30T20:57:00.331210,4184805,0,0,0,0,0,0,0,0,0
59,2,2022-09-30T20:57:00.336583,4184810,0,0,0,0,0,0,0,0,0
60,2,2022-09-30T20:57:00.345147,4184818,0,0,0,0,0,0,0,0,0
61,2,2022-09-30T20:57:00.350413,4184824,0,0,0,0,0,0,0,0,0
62,2,2022-09-30T20:57:00.355757,4184829,0,0,0,0,0,0,0,0,0
63,2,2022-09-30T20:57:00.362375,4184836,0,0,0,0,0,0,0,0,0
64,2,2022-09-30T20:57:00.368620,4184842,0,0,0,0,0,0,0,0,0
65,2,2022-09-30T20:57:00.374184,4184848,0,0,0,0,0,0,0,0,0
66,2,2022-09-30T20:57:00.380529,4184854,0,0,0,0,0,0,0,0,0
67,2,2022-09-30T20:57:00.390555,4184862,0,0,0,0,0,0,0,0,0
68,2,2022-09-30T20:57:00.398660,4184871,0,0,0,0,0,0,0,0,0
69,2,2022-09-30T20:57:00.408762,4184882,0,0,0,0,0,0,0,0,0
70,2,2022-09-30T20:57:00.415744,4184889,0,0,0,0,0,0,0,0,0
71,2,2022-09-30T20:57:00.424482,4184897,0,0,0,0,0,0,0,0,0
72,2,2022-09-30T20:57:00.432294,4184905,0,0,0,0,0,0,0,0,0
73,2,2022-09-30T20:57:00.440393,4184913,0,0,0,0,0,0,0,0,0
74,2,2022-09-30T20:57:00.449202,4184923,0,0,0,0,0,0,0,0,0
75,2,2022-09-30T20:57:00.455633,4184929,0,0,0,0,0,0,0,0,0
76,2,2022-09-30T20:57:00.462849,4184936,0,0,0,0,0,0,0,0,0
77,2,2022-09-30T20:57:00.470360,4184942,0,0,0,0,0,0,0,0,0
78,2,2022-09-30T20:57:00.476715,4184950,0,0,0,0,0,0,0,0,0
79,2,2022-09-30T20:57:00.485794,4184960,0,0,0,0,0,0,0,0,0
80,2,2022-09-30T20:57:00.492148,4184965,0,0,0,0,0,0,0,0,0
81,2,2022-09-30T20:57:00.498635,4184972,0,0,0,0,0,0,0,0,0
82,2,2022-09-30T20:57:00.504722,4184978,0,0,0,0,0,0,0,0,0
83,2,2022-09-30T20:57:00.510645,4184984,0,0,0,0,0,0,0,0,0
84,2,2022-09-30T20:57:00.517137,4184990,0,0,0,0,0,0,0,0,0
85,2,2022-09-30T20:57:00.523704,4184996,0,0,0,0,0,0,0,0,0
86,2,2022-09-30T20:57:00.529422,4185003,0,0,0,0,0,0,0,0,0
87,2,2022-09-30T20:57:00.535622,4185009,0,0,0,0,0,0,0,0,0
88,2,2022-09-30T20:57:00.543841,4185017,0,0,0,0,0,0,0,0,0
89,2,2022-09-30T20:57:00.549963,4185023,0,0,0,0,0,0,0,0,0
90,2,2022-09-30T20:57:00.555967,4185029,0,0,0,0,0,0,0,0,0
91,2,2022-09-30T20:57:00.562241,4185035,0,0,0,0,0,0,0,0,0
92,2,2022-09-30T20:57:00.568245,4185041,0,0,0,0,0,0,0,0,0
93,2,2022-09-30T20:57:00.574278,4185048,0,0,0,0,0,0,0,0,0
94,2,2022-09-30T20:57:00.580450,4185054,0,0,0,0,0,0,0,0,0
95,2,2022-09-30T20:57:00.587010,4185060,0,0,0,0,0,0,0,0,0
96,2,2022-09-30T20:57:00.592955,4185066,0,0,0,0,0,0,0,0,0
97,2,2022-09-30T20:57:00.598833,4185072,0,0,0,0,0,0,0,0,0
98,2,2022-09-30T20:57:00.604886,4185078,0,0,0,0,0,0,0,0,0
99,2,2022-09-30T20:57:00.610321,4185083,0,0,0,0,0,0,0,0,0
100,2,2022-09-30T20:57:00.615964,4185090,0,0,0,0,0,0,0,0,0
101,2,2022-09-30T20:57:00.623880,4185098,0,0,0,0,0,0,0,0,0
102,2,2022-09-30T20:57:00.628934,4185103,0,0,0,0,0,0,0,0,0
103,2,2022-09-30T20:57:00.634503,4185108,0,0,0,0,0,0,0,0,0
104,2,2022-09-30T20:57:00.642603,4185115,0,0,0,0,0,0,0,0,0
105,2,2022-09-30T20:57:00.649135,4185122,0,0,0,0,0,0,0,0,0
106,2,2022-09-30T20:57:00.655334,4185128,0,0,0,0,0,0,0,0,0
107,2,2022-09-30T20:57:00.660750,4185134,0,0,0,0,0,0,0,0,0
108,2,2022-09-30T20:57:00.666818,4185140,0,0,0,0,0,0,0,0,0
109,2,2022-09-30T20:57:00.672690,4185146,0,0,0,0,0,0,0,0,0
110,2,2022-09-30T20:57:00.678435,4185151,0,0,0,0,0,0,0,0,0
111,2,2022-09-30T20:57:00.683484,4185157,0,0,0,0,0,0,0,0,0
112,2,2022-09-30T20:57:00.688536,4185162,0,0,0,0,0,0,0,0,0
113,2,2022-09-30T20:57:00.694531,4185167,0,0,0,0,0,0,0,0,0
114,2,2022-09-30T20:57:00.699648,4185174,0,0,0,0,0,0,0,0,0
115,2,2022-09-30T20:57:00.705072,4185179,0,0,0,0,0,0,0,0,0
116,2,2022-09-30T20:57:00.710038,4185184,0,0,0,0,0,0,0,0,0
117,2,2022-09-30T20:57:00.715466,4185189,0,0,0,0,0,0,0,0,0
118,2,2022-09-30T20:57:00.721083,4185194,0,0,0,0,0,0,0,0,0
119,2,2022-09-30T20:57:00.726416,4185200,0,0,0,0,0,0,0,0,0
120,2,2022-09-30T20:57:00.731684,4185205,0,0,0,0,0,0,0,0,0
121,2,2022-09-30T20:57:00.736771,4185210,0,0,0,0,0,0,0,0,0
122,2,2022-09-30T20:57:00.742727,4185216,0,0,0,0,0,0,0,0,0
123,2,2022-09-30T20:57:00.748356,4185222,0,0,0,0,0,0,0,0,0
124,2,2022-09-30T20:57:00.753646,4185227,0,0,0,0,0,0,0,0,0
125,2,2022-09-30T20:57:00.760966,4185234,0,0,0,0,0,0,0,0,0
126,2,2022-09-30T20:57:00.768077,4185241,0,0,0,0,0,0,0,0,0
127,2,2022-09-30T20:57:00.773363,4185247,0,0,0,0,0,0,0,0,0
128,2,2022-09-30T20:57:00.779753,4185253,0,0,0,0,0,0,0,0,0
129,2,2022-09-30T20:57:00.785783,4185260,0,0,0,0,0,0,0,0,0
130,2,2022-09-30T20:57:00.791989,4185265,0,0,0,0,0,0,0,0,0
131,2,2022-09-30T20:57:00.797710,4185271,0,0,0,0,0,0,0,0,0
132,2,2022-09-30T20:57:00.806027,4185279,0,0,0,0,0,0,0,0,0
133,2,2022-09-30T20:57:00.811287,4185285,0,0,0,0,0,0,0,0,0
134,2,2022-09-30T20:57:00.817171,4185290,0,0,0,0,0,0,0,0,0
135,2,2022-09-30T20:57:00.824847,4185298,0,0,0,0,0,0,0,0,0
136,2,2022-09-30T20:57:00.830092,4185304,0,0,0,0,0,0,0,0,0
137,2,2022-09-30T20:57:00.835404,4185309,0,0,0,0,0,0,0,0,0
138,2,2022-09-30T20:57:00.842035,4185315,0,0,0,0,0,0,0,0,0
139,2,2022-09-30T20:57:00.847550,4185321,0,0,0,0,0,0,0,0,0
140,2,2022-09-30T20:57:00.852754,4185326,0,0,0,0,0,0,0,0,0
141,2,2022-09-30T20:57:00.859298,4185332,0,0,0,0,0,0,0,0,0
142,2,2022-09-30T20:57:00.864817,4185338,0,0,0,0,0,0,0,0,0
143,2,2022-09-30T20:57:00.870526,4185344,0,0,0,0,0,0,0,0,0
144,2,2022-09-30T20:57:00.875707,4185350,0,0,0,0,0,0,0,0,0
145,2,2022-09-30T20:57:00.881906,4185356,0,0,0,0,0,0,0,0,0
146,2,2022-09-30T20:57:00.888478,4185362,0,0,0,0,0,0,0,0,0
147,2,2022-09-30T20:57:00.895584,4185367,0,0,0,0,0,0,0,0,0
148,2,2022-09-30T20:57:00.900416,4185374,0,0,0,0,0,0,0,0,0
149,2,2022-09-30T20:57:00.905843,4185379,0,0,0,0,0,0,0,0,0
150,2,2022-09-30T20:57:00.910815,4185384,0,0,0,0,0,0,0,0,0
151,2,2022-09-30T20:57:00.916663,4185390,0,0,0,0,0,0,0,0,0
152,2,2022-09-30T20:57:00.922196,4185396,0,0,0,0,0,0,0,0,0
153,2,2022-09-30T20:57:00.927510,4185401,0,0,0,0,0,0,0,0,0
154,2,2022-09-30T20:57:00.933065,4185406,0,0,0,0,0,0,0,0,0
155,2,2022-09-30T20:57:00.939597,4185413,0,0,0,0,0,0,0,0,0
156,2,2022-09-30T20:57:00.946659,4185420,0,0,0,0,0,0,0,0,0
157,2,2022-09-30T20:57:00.951613,4185425,0,0,0,0,0,0,0,0,0
158,2,2022-09-30T20:57:00.956802,4185431,0,0,0,0,0,0,0,0,0
159,2,2022-09-30T20:57:00.963964,4185438,0,0,0,0,0,0,0,0,0
160,2,2022-09-30T20:57:00.969803,4185443,0,0,0,0,0,0,0,0,0
161,2,2022-09-30T20:57:00.974998,4185449,0,0,0,0,0,0,0,0,0
162,2,2022-09-30T20:57:00.980542,4185454,0,0,0,0,0,0,0,0,0
163,2,2022-09-30T20:57:00.986079,4185459,0,0,0,0,0,0,0,0,0
164,2,2022-09-30T20:57:00.992313,4185465,0,0,0,0,0,0,0,0,0
165,2,2022-09-30T20:57:00.997948,4185472,0,0,0,0,0,0,0,0,0
166,2,2022-09-30T20:57:01.004167,4185477,0,0,0,0,0,0,0,0,0
167,2,2022-09-30T20:57:01.009244,4185483,0,0,0,0,0,0,0,0,0
168,2,2022-09-30T20:57:01.014985,4185488,0,0,0,0,0,0,0,0,0
169,2,2022-09-30T20:57:01.021583,4185494,0,0,0,0,0,0,0,0,0
170,2,2022-09-30T20:57:01.027995,4185500,0,0,0,0,0,0,0,0,0
171,2,2022-09-30T20:57:01.034066,4185507,0,0,0,0,0,0,0,0,0
172,2,2022-09-30T20:57:01.039541,4185513,0,0,0,0,0,0,0,0,0
173,2,2022-09-30T20:57:01.045597,4185519,0,0,0,0,0,0,0,0,0
174,2,2022-09-30T20:57:01.051616,4185525,0,0,0,0,0,0,0,0,0
175,2,2022-09-30T20:57:01.057238,4185531,0,0,0,0,0,0,0,0,0
176,2,2022-09-30T20:57:01.062509,4185536,0,0,0,0,0,0,0,0,0
177,2,2022-09-30T20:57:01.068884,4185541,0,0,0,0,0,0,0,0,0
178,2,2022-09-30T20:57:01.074562,4185548,0,0,0,0,0,0,0,0,0
179,2,2022-09-30T20:57:01.080510,4185553,0,0,0,0,0,0,0,0,0
180,2,2022-09-30T20:57:01.085964,4185560,0,0,0,0,0,0,0,0,0
181,2,2022-09-30T20:57:01.092341,4185566,0,0,0,0,0,0,0,0,0
182,2,2022-09-30T20:57:01.098218,4185572,0,0,0,0,0,0,0,0,0
183,2,2022-09-30T20:57:01.107406,4185581,0,0,0,0,0,0,0,0,0
184,2,2022-09-30T20:57:01.112837,4185586,0,0,0,0,0,0,0,0,0
185,2,2022-09-30T20:57:01.118691,4185591,0,0,0,0,0,0,0,0,0
186,2,2022-09-30T20:57:01.124788,4185597,0,0,0,0,0,0,0,0,0
187,2,2022-09-30T20:57:01.129965,4185604,0,0,0,0,0,0,0,0,0
188,2,2022-09-30T20:57:01.135282,4185609,0,0,0,0,0,0,0,0,0
189,2,2022-09-30T20:57:01.143102,4185616,0,0,0,0,0,0,0,0,0
190,2,2022-09-30T20:57:01.149147,4185622,0,0,0,0,0,0,0,0,0
191,2,2022-09-30T20:57:01.155232,4185628,0,0,0,0,0,0,0,0,0
192,2,2022-09-30T20:57:01.160461,4185634,0,0,0,0,0,0,0,0,0
193,2,2022-09-30T20:57:01.166977,4185639,0,0,0,0,0,0,0,0,0
194,2,2022-09-30T20:57:01.172925,4185647,0,0,0,0,0,0,0,0,0
195,2,2022-09-30T20:57:01.180343,4185654,0,0,0,0,0,0,0,0,0
196,2,2022-09-30T20:57:01.185955,4185659,0,0,0,0,0,0,0,0,0
197,2,2022-09-30T20:57:01.191635,4185665,0,0,0,0,0,0,0,0,0
198,2,2022-09-30T20:57:01.197224,4185670,0,0,0,0,0,0,0,0,0
199,2,2022-09-30T20:57:01.202483,4185676,0,0,0,0,0,0,0,0,0
200,2,2022-09-30T20:57:01.207558,4185680,0,0,0,0,0,0,0,0,0
201,2,2022-09-30T20:57:01.213972,4185687,0,0,0,0,0,0,0,0,0
202,2,2022-09-30T20:57:01.219216,4185693,0,0,0,0,0,0,0,0,0
203,2,2022-09-30T20:57:01.228202,4185702,0,0,0,0,0,0,0,0,0
204,2,2022-09-30T20:57:01.233698,4185707,0,0,0,0,0,0,0,0,0
205,2,2022-09-30T20:57:01.239284,4185712,0,0,0,0,0,0,0,0,0
206,2,2022-09-30T20:57:01.245049,4185718,0,0,0,0,0,0,0,0,0
207,2,2022-09-30T20:57:01.250554,4185723,0,0,0,0,0,0,0,0,0
208,2,2022-09-30T20:57:01.255643,4185730,0,0,0,0,0,0,0,0,0
209,2,2022-09-30T20:57:01.260716,4185735,0,0,0,0,0,0,0,0,0
210,2,2022-09-30T20:57:01.265815,4185739,0,0,0,0,0,0,0,0,0
211,2,2022-09-30T20:57:01.271796,4185745,0,0,0,0,0,0,0,0,0
212,2,2022-09-30T20:57:01.276748,4185751,0,0,0,0,0,0,0,0,0
213,2,2022-09-30T20:57:01.282875,4185755,0,0,0,0,0,0,0,0,0
214,2,2022-09-30T20:57:01.287680,4185761,0,0,0,0,0,0,0,0,0
215,2,2022-09-30T20:57:01.293358,4185766,0,0,0,0,0,0,0,0,0
216,2,2022-09-30T20:57:01.300478,4185775,0,0,0,0,0,0,0,0,0
217,2,2022-09-30T20:57:01.307275,4185781,0,0,0,0,0,0,0,0,0
218,2,2022-09-30T20:57:01.312250,4185786,0,0,0,0,0,0,0,0,0
219,2,2022-09-30T20:57:01.317632,4185791,0,0,0,0,0,0,0,0,0
220,2,2022-09-30T20:57:01.325356,4185799,0,0,0,0,0,0,0,0,0
221,2,2022-09-30T20:57:01.330301,4185804,0,0,0,0,0,0,0,0,0
222,2,2022-09-30T20:57:01.335289,4185809,0,0,0,0,0,0,0,0,0
223,2,2022-09-30T20:57:01.342364,4185816,0,0,0,0,0,0,0,0,0
224,2,2022-09-30T20:57:01.349748,4185823,0,0,0,0,0,0,0,0,0
225,2,2022-09-30T20:57:01.355159,4185829,0,0,0,0,0,0,0,0,0
226,2,2022-09-30T20:57:01.360385,4185834,0,0,0,0,0,0,0,0,0
227,2,2022-09-30T20:57:01.367748,4185841,0,0,0,0,0,0,0,0,0
228,2,2022-09-30T20:57:01.372680,4185846,0,0,0,0,0,0,0,0,0
229,2,2022-09-30T20:57:01.378756,4185852,0,0,0,0,0,0,0,0,0
230,2,2022-09-30T20:57:01.384129,4185858,0,0,0,0,0,0,0,0,0
231,2,2022-09-30T20:57:01.389322,4185863,0,0,0,0,0,0,0,0,0
232,2,2022-09-30T20:57:01.395307,4185869,0,0,0,0,0,0,0,0,0
233,2,2022-09-30T20:57:01.402040,4185876,0,0,0,0,0,0,0,0,0
234,2,2022-09-30T20:57:01.412488,4185885,0,0,0,0,0,0,0,0,0
235,2,2022-09-30T20:57:01.426019,4185891,0,0,0,0,0,0,0,0,0
236,2,2022-09-30T20:57:01.436369,4185909,0,0,0,0,0,0,0,0,0
237,2,2022-09-30T20:57:01.451025,4185924,0,0,0,0,0,0,0,0,0
238,2,2022-09-30T20:57:01.461232,4185933,0,0,0,0,0,0,0,0,0
239,2,2022-09-30T20:57:01.475609,4185949,0,0,0,0,0,0,0,0,0
240,2,2022-09-30T20:57:01.484216,4185957,0,0,0,0,0,0,0,0,0
241,2,2022-09-30T20:57:01.493467,4185964,0,0,0,0,0,0,0,0,0
242,2,2022-09-30T20:57:01.499207,4185972,0,0,0,0,0,0,0,0,0
243,2,2022-09-30T20:57:01.508400,4185982,0,0,0,0,0,0,0,0,0
244,2,2022-09-30T20:57:01.513707,4185988,0,0,0,0,0,0,0,0,0
245,2,2022-09-30T20:57:01.521460,4185995,0,0,0,0,0,0,0,0,0
246,2,2022-09-30T20:57:01.526688,4186000,0,0,0,0,0,0,0,0,0
247,2,2022-09-30T20:57:01.531683,4186005,0,0,0,0,0,0,0,0,0
248,2,2022-09-30T20:57:01.536657,4186010,0,0,0,0,0,0,0,0,0
249,2,2022-09-30T20:57:01.544584,4186016,0,0,0,0,0,0,0,0,0
250,2,2022-09-30T20:57:01.551485,4186025,0,0,0,0,0,0,0,0,0
251,2,2022-09-30T20:57:01.557101,4186031,0,0,0,0,0,0,0,0,0
252,2,2022-09-30T20:57:01.562674,4186036,0,0,0,0,0,0,0,0,0
253,2,2022-09-30T20:57:01.568753,4186042,0,0,0,0,0,0,0,0,0
254,2,2022-09-30T20:57:01.574117,4186048,0,0,0,0,0,0,0,0,0
255,2,2022-09-30T20:57:01.580438,4186054,0,0,0,0,0,0,0,0,0
256,2,2022-09-30T20:57:01.585960,4186059,0,0,0,0,0,0,0,0,0
257,2,2022-09-30T20:57:01.592166,4186065,0,0,0,0,0,0,0,0,0
258,2,2022-09-30T20:57:01.598225,4186072,0,0,0,0,0,0,0,0,0
259,2,2022-09-30T20:57:01.605257,4186079,0,0,0,0,0,0,0,0,0
260,2,2022-09-30T20:57:01.610250,4186084,0,0,0,0,0,0,0,0,0
261,2,2022-09-30T20:57:01.616303,4186089,0,0,0,0,0,0,0,0,0
262,2,2022-09-30T20:57:01.624825,4186098,0,0,0,0,0,0,0,0,0
263,2,2022-09-30T20:57:01.629739,4186103,0,0,0,0,0,0,0,0,0
264,2,2022-09-30T20:57:01.634759,4186108,0,0,0,0,0,0,0,0,0
265,2,2022-09-30T20:57:01.641385,4186115,0,0,0,0,0,0,0,0,0
266,2,2022-09-30T20:57:01.649529,4186123,0,0,0,0,0,0,0,0,0
267,2,2022-09-30T20:57:01.654813,4186128,0,0,0,0,0,0,0,0,0
268,2,2022-09-30T20:57:01.661267,4186135,0,0,0,0,0,0,0,0,0
269,2,2022-09-30T20:57:01.668381,4186141,0,0,0,0,0,0,0,0,0
270,2,2022-09-30T20:57:01.673598,4186147,0,0,0,0,0,0,0,0,0
271,2,2022-09-30T20:57:01.679873,4186153,0,0,0,0,0,0,0,0,0
272,2,2022-09-30T20:57:01.685304,4186159,0,0,0,0,0,0,0,0,0
273,2,2022-09-30T20:57:01.690938,4186165,0,0,0,0,0,0,0,0,0
274,2,2022-09-30T20:57:01.697083,4186171,0,0,0,0,0,0,0,0,0
275,2,2022-09-30T20:57:01.702930,4186176,0,0,0,0,0,0,0,0,0
276,2,2022-09-30T20:57:01.708159,4186182,0,0,0,0,0,0,0,0,0
277,2,2022-09-30T20:57:01.713268,4186187,0,0,0,0,0,0,0,0,0
278,2,2022-09-30T20:57:01.720691,4186194,0,0,0,0,0,0,0,0,0
279,2,2022-09-30T20:57:01.726191,4186200,0,0,0,0,0,0,0,0,0
280,2,2022-09-30T20:57:01.731228,4186205,0,0,0,0,0,0,0,0,0
281,2,2022-09-30T20:57:01.736405,4186210,0,0,0,0,0,0,0,0,0
282,2,2022-09-30T20:57:01.743233,4186216,0,0,0,0,0,0,0,0,0
283,2,2022-09-30T20:57:01.748628,4186222,0,0,0,0,0,0,0,0,0
284,2,2022-09-30T20:57:01.753879,4186227,0,0,0,0,0,0,0,0,0
285,2,2022-09-30T20:57:01.760588,4186234,0,0,0,0,0,0,0,0,0
286,2,2022-09-30T20:57:01.767624,4186241,0,0,0,0,0,0,0,0,0
287,2,2022-09-30T20:57:01.772678,4186247,0,0,0,0,0,0,0,0,0
288,2,2022-09-30T20:57:01.777845,4186252,0,0,0,0,0,0,0,0,0
289,2,2022-09-30T20:57:01.784844,4186259,0,0,0,0,0,0,0,0,0
290,2,2022-09-30T20:57:01.790260,4186264,0,0,0,0,0,0,0,0,0
291,2,2022-09-30T20:57:01.796041,4186269,0,0,0,0,0,0,0,0,0
292,2,2022-09-30T20:57:01.802769,4186276,0,0,0,0,0,0,0,0,0
293,2,2022-09-30T20:57:01.809242,4186283,0,0,0,0,0,0,0,0,0
294,2,2022-09-30T20:57:01.814576,4186289,0,0,0,0,0,0,0,0,0
295,2,2022-09-30T20:57:01.822316,4186296,0,0,0,0,0,0,0,0,0
296,2,2022-09-30T20:57:01.829257,4186303,0,0,0,0,0,0,0,0,0
297,2,2022-09-30T20:57:01.834270,4186308,0,0,0,0,0,0,0,0,0
298,2,2022-09-30T20:57:01.840777,4186314,0,0,0,0,0,0,0,0,0
299,2,2022-09-30T20:57:01.847539,4186321,0,0,0,0,0,0,0,0,0
300,2,2022-09-30T20:57:01.853666,4186328,0,0,0,0,0,0,0,0,0
301,2,2022-09-30T20:57:01.860179,4186334,0,0,0,0,0,0,0,0,0
302,2,2022-09-30T20:57:01.866874,4186340,0,0,0,0,0,0,0,0,0
303,2,2022-09-30T20:57:01.873326,4186347,0,0,0,0,0,0,0,0,0
304,2,2022-09-30T20:57:01.880381,4186353,0,0,0,0,0,0,0,0,0
305,2,2022-09-30T20:57:01.886596,4186360,0,0,0,0,0,0,0,0,0
306,2,2022-09-30T20:57:01.892252,4186365,0,0,0,0,0,0,0,0,0
307,2,2022-09-30T20:57:01.898368,4186373,0,0,0,0,0,0,0,0,0
308,2,2022-09-30T20:57:01.905399,4186379,0,0,0,0,0,0,0,0,0
309,2,2022-09-30T20:57:01.910349,4186384,0,0,0,0,0,0,0,0,0
310,2,2022-09-30T20:57:01.916473,4186389,0,0,0,0,0,0,0,0,0
311,2,2022-09-30T20:57:01.925627,4186399,0,0,0,0,0,0,0,0,0
312,2,2022-09-30T20:57:01.932236,4186405,0,0,0,0,0,0,0,0,0
313,2,2022-09-30T20:57:01.937640,4186412,0,0,0,0,0,0,0,0,0
314,2,2022-09-30T20:57:01.945689,4186419,0,0,0,0,0,0,0,0,0
315,2,2022-09-30T20:57:01.951041,4186425,0,0,0,0,0,0,0,0,0
316,2,2022-09-30T20:57:01.956120,4186430,0,0,0,0,0,0,0,0,0
317,2,2022-09-30T20:57:01.962509,4186436,0,0,0,0,0,0,0,0,0
318,2,2022-09-30T20:57:01.968445,4186441,0,0,0,0,0,0,0,0,0
319,2,2022-09-30T20:57:01.974822,4186448,0,0,0,0,0,0,0,0,0
320,2,2022-09-30T20:57:01.982508,4186456,0,0,0,0,0,0,0,0,0
321,2,2022-09-30T20:57:01.990960,4186463,0,0,0,0,0,0,0,0,0
322,2,2022-09-30T20:57:01.998376,4186472,0,0,0,0,0,0,0,0,0
323,2,2022-09-30T20:57:02.006019,4186480,0,0,0,0,0,0,0,0,0
324,2,2022-09-30T20:57:02.011015,4186485,0,0,0,0,0,0,0,0,0
325,2,2022-09-30T20:57:02.017942,4186490,0,0,0,0,0,0,0,0,0
326,2,2022-09-30T20:57:02.023040,4186497,0,0,0,0,0,0,0,0,0
327,2,2022-09-30T20:57:02.028420,4186502,0,0,0,0,0,0,0,0,0
328,2,2022-09-30T20:57:02.033948,4186508,0,0,0,0,0,0,0,0,0
329,2,2022-09-30T20:57:02.040658,4186514,0,0,0,0,0,0,0,0,0
330,2,2022-09-30T20:57:02.047299,4186521,0,0,0,0,0,0,0,0,0
331,2,2022-09-30T20:57:02.052544,4186526,0,0,0,0,0,0,0,0,0
332,2,2022-09-30T20:57:02.057429,4186531,0,0,0,0,0,0,0,0,0
333,2,2022-09-30T20:57:02.065698,4186539,0,0,0,0,0,0,0,0,0
334,2,2022-09-30T20:57:02.071959,4186546,0,0,0,0,0,0,0,0,0
335,2,2022-09-30T20:57:02.077164,4186551,0,0,0,0,0,0,0,0,0
336,2,2022-09-30T20:57:02.084394,4186558,0,0,0,0,0,0,0,0,0
337,2,2022-09-30T20:57:02.089549,4186563,0,0,0,0,0,0,0,0,0
338,2,2022-09-30T20:57:02.095341,4186568,0,0,0,0,0,0,0,0,0
339,2,2022-09-30T20:57:02.101822,4186575,0,0,0,0,0,0,0,0,0
340,2,2022-09-30T20:57:02.107969,4186582,0,0,0,0,0,0,0,0,0
341,2,2022-09-30T20:57:02.113114,4186587,0,0,0,0,0,0,0,0,0
342,2,2022-09-30T20:57:02.118664,4186592,0,0,0,0,0,0,0,0,0
343,2,2022-09-30T20:57:02.126882,4186601,0,0,0,0,0,0,0,0,0
344,2,2022-09-30T20:57:02.131993,4186606,0,0,0,0,0,0,0,0,0
345,2,2022-09-30T20:57:02.137252,4186611,0,0,0,0,0,0,0,0,0
346,2,2022-09-30T20:57:02.145691,4186618,0,0,0,0,0,0,0,0,0
347,2,2022-09-30T20:57:02.151432,4186625,0,0,0,0,0,0,0,0,0
348,2,2022-09-30T20:57:02.156941,4186631,0,0,0,0,0,0,0,0,0
349,2,2022-09-30T20:57:02.163553,4186637,0,0,0,0,0,0,0,0,0
350,2,2022-09-30T20:57:02.170590,4186644,0,0,0,0,0,0,0,0,0
351,2,2022-09-30T20:57:02.176258,4186650,0,0,0,0,0,0,0,0,0
352,2,2022-09-30T20:57:02.182417,4186656,0,0,0,0,0,0,0,0,0
353,2,2022-09-30T20:57:02.188783,4186662,0,0,0,0,0,0,0,0,0
354,2,2022-09-30T20:57:02.194274,4186668,0,0,0,0,0,0,0,0,0
355,2,2022-09-30T20:57:02.201063,4186675,0,0,0,0,0,0,0,0,0
356,2,2022-09-30T20:57:02.207391,4186681,0,0,0,0,0,0,0,0,0
357,2,2022-09-30T20:57:02.212638,4186686,0,0,0,0,0,0,0,0,0
358,2,2022-09-30T20:57:02.219057,4186692,0,0,0,0,0,0,0,0,0
359,2,2022-09-30T20:57:02.227651,4186701,0,0,0,0,0,0,0,0,0
360,2,2022-09-30T20:57:02.232777,4186706,0,0,0,0,0,0,0,0,0
361,2,2022-09-30T20:57:02.237968,4186712,0,0,0,0,0,0,0,0,0
362,2,2022-09-30T20:57:02.246636,4186720,0,0,0,0,0,0,0,0,0
363,2,2022-09-30T20:57:02.251601,4186726,0,0,0,0,0,0,0,0,0
364,2,2022-09-30T20:57:02.256806,4186730,0,0,0,0,0,0,0,0,0
365,2,2022-09-30T20:57:02.263930,4186738,0,0,0,0,0,0,0,0,0
366,2,2022-09-30T20:57:02.270821,4186744,0,0,0,0,0,0,0,0,0
367,2,2022-09-30T20:57:02.276626,4186749,0,0,0,0,0,0,0,0,0
368,2,2022-09-30T20:57:02.283763,4186758,0,0,0,0,0,0,0,0,0
369,2,2022-09-30T20:57:02.290721,4186764,0,0,0,0,0,0,0,0,0
370,2,2022-09-30T20:57:02.296168,4186769,0,0,0,0,0,0,0,0,0
371,2,2022-09-30T20:57:02.302538,4186776,0,0,0,0,0,0,0,0,0
372,2,2022-09-30T20:57:02.309258,4186782,0,0,0,0,0,0,0,0,0
373,2,2022-09-30T20:57:02.314232,4186788,0,0,0,0,0,0,0,0,0
374,2,2022-09-30T20:57:02.321367,4186795,0,0,0,0,0,0,0,0,0
375,2,2022-09-30T20:57:02.327809,4186802,0,0,0,0,0,0,0,0,0
376,2,2022-09-30T20:57:02.332922,4186807,0,0,0,0,0,0,0,0,0
377,2,2022-09-30T20:57:02.337930,4186812,0,0,0,0,0,0,0,0,0
378,2,2022-09-30T20:57:02.346141,4186820,0,0,0,0,0,0,0,0,0
379,2,2022-09-30T20:57:02.351354,4186825,0,0,0,0,0,0,0,0,0
380,2,2022-09-30T20:57:02.356500,4186830,0,0,0,0,0,0,0,0,0
381,2,2022-09-30T20:57:02.362611,4186836,0,0,0,0,0,0,0,0,0
382,2,2022-09-30T20:57:02.369540,4186843,0,0,0,0,0,0,0,0,0
383,2,2022-09-30T20:57:02.375008,4186849,0,0,0,0,0,0,0,0,0
384,2,2022-09-30T20:57:02.381332,4186855,0,0,0,0,0,0,0,0,0
385,2,2022-09-30T20:57:02.388677,4186861,0,0,0,0,0,0,0,0,0
386,2,2022-09-30T20:57:02.395050,4186868,0,0,0,0,0,0,0,0,0
387,2,2022-09-30T20:57:02.401378,4186875,0,0,0,0,0,0,0,0,0
388,2,2022-09-30T20:57:02.407508,4186882,0,0,0,0,0,0,0,0,0
389,2,2022-09-30T20:57:02.412947,4186887,0,0,0,0,0,0,0,0,0
390,2,2022-09-30T20:57:02.418698,4186892,0,0,0,0,0,0,0,0,0
391,2,2022-09-30T20:57:02.426856,4186901,0,0,0,0,0,0,0,0,0
392,2,2022-09-30T20:57:02.432110,4186906,0,0,0,0,0,0,0,0,0
393,2,2022-09-30T20:57:02.436961,4186911,0,0,0,0,0,0,0,0,0
394,2,2022-09-30T20:57:02.445740,4186918,0,0,0,0,0,0,0,0,0
395,2,2022-09-30T20:57:02.451002,4186925,0,0,0,0,0,0,0,0,0
396,2,2022-09-30T20:57:02.455946,4186930,0,0,0,0,0,0,0,0,0
397,2,2022-09-30T20:57:02.461068,4186935,0,0,0,0,0,0,0,0,0
398,2,2022-09-30T20:57:02.468012,4186941,0,0,0,0,0,0,0,0,0
399,2,2022-09-30T20:57:02.473764,4186947,0,0,0,0,0,0,0,0,0
400,2,2022-09-30T20:57:02.478678,4186952,0,0,0,0,0,0,0,0,0
401,2,2022-09-30T20:57:02.486620,4186960,0,0,0,0,0,0,0,0,0
402,2,2022-09-30T20:57:02.492789,4186966,0,0,0,0,0,0,0,0,0
403,2,2022-09-30T20:57:02.498713,4186972,0,0,0,0,0,0,0,0,0
404,2,2022-09-30T20:57:02.505994,4186980,0,0,0,0,0,0,0,0,0
405,2,2022-09-30T20:57:02.511203,4186985,0,0,0,0,0,0,0,0,0
406,2,2022-09-30T20:57:02.516818,4186990,0,0,0,0,0,0,0,0,0
407,2,2022-09-30T20:57:02.525420,4186999,0,0,0,0,0,0,0,0,0
408,2,2022-09-30T20:57:02.531619,4187005,0,0,0,0,0,0,0,0,0
409,2,2022-09-30T20:57:02.536757,4187011,0,0,0,0,0,0,0,0,0
410,2,2022-09-30T20:57:02.543833,4187018,0,0,0,0,0,0,0,0,0
411,2,2022-09-30T20:57:02.551073,4187024,0,0,0,0,0,0,0,0,0
412,2,2022-09-30T20:57:02.556870,4187030,0,0,0,0,0,0,0,0,0
413,2,2022-09-30T20:57:02.568939,4187040,0,0,0,0,0,0,0,0,0
414,2,2022-09-30T20:57:02.575535,4187049,0,0,0,0,0,0,0,0,0
415,2,2022-09-30T20:57:02.581169,4187055,0,0,0,0,0,0,0,0,0
416,2,2022-09-30T20:57:02.588749,4187063,0,0,0,0,0,0,0,0,0
417,2,2022-09-30T20:57:02.594510,4187068,0,0,0,0,0,0,0,0,0
418,2,2022-09-30T20:57:02.600077,4187074,0,0,0,0,0,0,0,0,0
419,2,2022-09-30T20:57:02.606311,4187080,0,0,0,0,0,0,0,0,0
420,2,2022-09-30T20:57:02.611725,4187085,0,0,0,0,0,0,0,0,0
421,2,2022-09-30T20:57:02.617795,4187090,0,0,0,0,0,0,0,0,0
422,2,2022-09-30T20:57:02.625015,4187099,0,0,0,0,0,0,0,0,0
423,2,2022-09-30T20:57:02.631695,4187106,0,0,0,0,0,0,0,0,0
424,2,2022-09-30T20:57:02.637084,4187111,0,0,0,0,0,0,0,0,0
425,2,2022-09-30T20:57:02.644195,4187117,0,0,0,0,0,0,0,0,0
426,2,2022-09-30T20:57:02.650959,4187125,0,0,0,0,0,0,0,0,0
427,2,2022-09-30T20:57:02.656271,4187129,0,0,0,0,0,0,0,0,0
428,2,2022-09-30T20:57:02.662442,4187137,0,0,0,0,0,0,0,0,0
429,2,2022-09-30T20:57:02.669346,4187143,0,0,0,0,0,0,0,0,0
430,2,2022-09-30T20:57:02.674234,4187148,0,0,0,0,0,0,0,0,0
431,2,2022-09-30T20:57:02.680192,4187154,0,0,0,0,0,0,0,0,0
432,2,2022-09-30T20:57:02.686369,4187160,0,0,0,0,0,0,0,0,0
433,2,2022-09-30T20:57:02.692617,4187166,0,0,0,0,0,0,0,0,0
434,2,2022-09-30T20:57:02.697920,4187171,0,0,0,0,0,0,0,0,0
435,2,2022-09-30T20:57:02.706485,4187180,0,0,0,0,0,0,0,0,0
436,2,2022-09-30T20:57:02.712216,4187186,0,0,0,0,0,0,0,0,0
437,2,2022-09-30T20:57:02.718550,4187192,0,0,0,0,0,0,0,0,0
438,2,2022-09-30T20:57:02.724467,4187198,0,0,0,0,0,0,0,0,0
439,2,2022-09-30T20:57:02.730401,4187204,0,0,0,0,0,0,0,0,0
440,2,2022-09-30T20:57:02.735873,4187209,0,0,0,0,0,0,0,0,0
441,2,2022-09-30T20:57:02.742291,4187214,0,0,0,0,0,0,0,0,0
442,2,2022-09-30T20:57:02.749333,4187223,0,0,0,0,0,0,0,0,0
443,2,2022-09-30T20:57:02.754665,4187229,0,0,0,0,0,0,0,0,0
444,2,2022-09-30T20:57:02.760155,4187234,0,0,0,0,0,0,0,0,0
445,2,2022-09-30T20:57:02.766953,4187240,0,0,0,0,0,0,0,0,0
446,2,2022-09-30T20:57:02.772028,4187246,0,0,0,0,0,0,0,0,0
447,2,2022-09-30T20:57:02.777052,4187251,0,0,0,0,0,0,0,0,0
448,2,2022-09-30T20:57:02.784135,4187258,0,0,0,0,0,0,0,0,0
449,2,2022-09-30T20:57:02.789268,4187264,0,0,0,0,0,0,0,0,0
450,2,2022-09-30T20:57:02.794362,4187268,0,0,0,0,0,0,0,0,0
451,2,2022-09-30T20:57:02.800438,4187275,0,0,0,0,0,0,0,0,0
452,2,2022-09-30T20:57:02.806788,4187281,0,0,0,0,0,0,0,0,0
453,2,2022-09-30T20:57:02.811967,4187286,0,0,0,0,0,0,0,0,0
454,2,2022-09-30T20:57:02.817158,4187291,0,0,0,0,0,0,0,0,0
455,2,2022-09-30T20:57:02.823684,4187297,0,0,0,0,0,0,0,0,0
456,2,2022-09-30T20:57:02.829535,4187302,0,0,0,0,0,0,0,0,0
457,2,2022-09-30T20:57:02.835060,4187309,0,0,0,0,0,0,0,0,0
458,2,2022-09-30T20:57:02.842344,4187316,0,0,0,0,0,0,0,0,0
459,2,2022-09-30T20:57:02.850670,4187324,0,0,0,0,0,0,0,0,0
460,2,2022-09-30T20:57:02.856681,4187330,0,0,0,0,0,0,0,0,0
461,2,2022-09-30T20:57:02.862193,4187335,0,0,0,0,0,0,0,0,0
462,2,2022-09-30T20:57:02.868947,4187342,0,0,0,0,0,0,0,0,0
463,2,2022-09-30T20:57:02.874407,4187347,0,0,0,0,0,0,0,0,0
464,2,2022-09-30T20:57:02.884377,4187355,0,0,0,0,0,0,0,0,0
465,2,2022-09-30T20:57:02.897867,4187371,0,0,0,0,0,0,0,0,0
466,2,2022-09-30T20:57:02.908940,4187382,0,0,0,0,0,0,0,0,0
467,2,2022-09-30T20:57:02.915006,4187388,0,0,0,0,0,0,0,0,0
468,2,2022-09-30T20:57:02.927553,4187400,0,0,0,0,0,0,0,0,0
469,2,2022-09-30T20:57:02.936608,4187410,0,0,0,0,0,0,0,0,0
470,2,2022-09-30T20:57:02.945563,4187417,0,0,0,0,0,0,0,0,0
471,2,2022-09-30T20:57:02.954499,4187427,0,0,0,0,0,0,0,0,0
472,2,2022-09-30T20:57:02.960824,4187435,0,0,0,0,0,0,0,0,0
473,2,2022-09-30T20:57:02.969526,4187442,0,0,0,0,0,0,0,0,0
474,2,2022-09-30T20:57:02.977763,4187451,0,0,0,0,0,0,0,0,0
475,2,2022-09-30T20:57:02.986459,4187460,0,0,0,0,0,0,0,0,0
476,2,2022-09-30T20:57:02.992284,4187465,0,0,0,0,0,0,0,0,0
477,2,2022-09-30T20:57:03.000640,4187473,0,0,0,0,0,0,0,0,0
478,2,2022-09-30T20:57:03.009216,4187483,0,0,0,0,0,0,0,0,0
479,2,2022-09-30T20:57:03.014350,4187488,0,0,0,0,0,0,0,0,0
480,2,2022-09-30T20:57:03.021601,4187494,0,0,0,0,0,0,0,0,0
481,2,2022-09-30T20:57:03.032196,4187505,0,0,0,0,0,0,0,0,0
482,2,2022-09-30T20:57:03.037816,4187511,0,0,0,0,0,0,0,0,0
483,2,2022-09-30T20:57:03.048854,4187522,0,0,0,0,0,0,0,0,0
484,2,2022-09-30T20:57:03.055016,4187529,0,0,0,0,0,0,0,0,0
485,2,2022-09-30T20:57:03.061189,4187535,0,0,0,0,0,0,0,0,0
486,2,2022-09-30T20:57:03.067528,4187541,0,0,0,0,0,0,0,0,0
487,2,2022-09-30T20:57:03.074272,4187546,0,0,0,0,0,0,0,0,0
488,2,2022-09-30T20:57:03.081163,4187555,0,0,0,0,0,0,0,0,0
489,2,2022-09-30T20:57:03.089443,4187564,0,0,0,0,0,0,0,0,0
490,2,2022-09-30T20:57:03.096011,4187569,0,0,0,0,0,0,0,0,0
491,2,2022-09-30T20:57:03.103904,4187578,0,0,0,0,0,0,0,0,0
492,2,2022-09-30T20:57:03.109219,4187583,0,0,0,0,0,0,0,0,0
493,2,2022-09-30T20:57:03.114676,4187588,0,0,0,0,0,0,0,0,0
494,2,2022-09-30T20:57:03.121026,4187594,0,0,0,0,0,0,0,0,0
495,2,2022-09-30T20:57:03.130039,4187603,0,0,0,0,0,0,0,0,0
496,2,2022-09-30T20:57:03.135346,4187609,0,0,0,0,0,0,0,0,0
497,2,2022-09-30T20:57:03.142478,4187616,0,0,0,0,0,0,0,0,0
498,2,2022-09-30T20:57:03.152967,4187626,0,0,0,0,0,0,0,0,0
499,2,2022-09-30T20:57:03.158556,4187632,0,0,0,0,0,0,0,0,0
500,2,2022-09-30T20:57:03.167299,4187640,0,0,0,0,0,0,0,0,0
501,2,2022-09-30T20:57:03.175401,4187649,0,0,0,0,0,0,0,0,0
502,2,2022-09-30T20:57:03.182308,4187656,0,0,0,0,0,0,0,0,0
503,2,2022-09-30T20:57:03.187609,4187661,0,0,0,0,0,0,0,0,0
504,2,2022-09-30T20:57:03.193955,4187667,0,0,0,0,0,0,0,0,0
505,2,2022-09-30T20:57:03.199841,4187673,0,0,0,0,0,0,0,0,0
506,2,2022-09-30T20:57:03.208033,4187681,0,0,0,0,0,0,0,0,0
507,2,2022-09-30T20:57:03.213748,4187687,0,0,0,0,0,0,0,0,0
508,2,2022-09-30T20:57:03.219230,4187693,0,0,0,0,0,0,0,0,0
509,2,2022-09-30T20:57:03.229181,4187703,0,0,0,0,0,0,0,0,0
510,2,2022-09-30T20:57:03.234294,4187708,0,0,0,0,0,0,0,0,0
511,2,2022-09-30T20:57:03.239472,4187713,0,0,0,0,0,0,0,0,0
512,2,2022-09-30T20:57:03.251936,4187725,0,0,0,0,0,0,0,0,0
513,2,2022-09-30T20:57:03.257047,4187730,0,0,0,0,0,0,0,0,0
514,2,2022-09-30T20:57:03.263292,4187738,0,0,0,0,0,0,0,0,0
515,2,2022-09-30T20:57:03.270373,4187744,0,0,0,0,0,0,0,0,0
516,2,2022-09-30T20:57:03.276653,4187750,0,0,0,0,0,0,0,0,0
517,2,2022-09-30T20:57:03.284166,4187758,0,0,0,0,0,0,0,0,0
518,2,2022-09-30T20:57:03.289673,4187763,0,0,0,0,0,0,0,0,0
519,2,2022-09-30T20:57:03.295720,4187768,0,0,0,0,0,0,0,0,0
520,2,2022-09-30T20:57:03.304500,4187779,0,0,0,0,0,0,0,0,0
521,2,2022-09-30T20:57:03.310644,4187785,0,0,0,0,0,0,0,0,0
522,2,2022-09-30T20:57:03.316925,4187790,0,0,0,0,0,0,0,0,0
523,2,2022-09-30T20:57:03.328060,4187802,0,0,0,0,0,0,0,0,0
524,2,2022-09-30T20:57:03.334372,4187808,0,0,0,0,0,0,0,0,0
525,2,2022-09-30T20:57:03.339325,4187813,0,0,0,0,0,0,0,0,0
526,2,2022-09-30T20:57:03.352804,4187826,0,0,0,0,0,0,0,0,0
527,2,2022-09-30T20:57:03.358891,4187833,0,0,0,0,0,0,0,0,0
528,2,2022-09-30T20:57:03.366867,4187840,0,0,0,0,0,0,0,0,0
529,2,2022-09-30T20:57:03.373668,4187847,0,0,0,0,0,0,0,0,0
530,2,2022-09-30T20:57:03.379008,4187852,0,0,0,0,0,0,0,0,0
531,2,2022-09-30T20:57:03.386536,4187860,0,0,0,0,0,0,0,0,0
532,2,2022-09-30T20:57:03.393319,4187866,0,0,0,0,0,0,0,0,0
533,2,2022-09-30T20:57:03.399877,4187873,0,0,0,0,0,0,0,0,0
534,2,2022-09-30T20:57:03.408451,4187882,0,0,0,0,0,0,0,0,0
535,2,2022-09-30T20:57:03.413822,4187887,0,0,0,0,0,0,0,0,0
536,2,2022-09-30T20:57:03.421066,4187893,0,0,0,0,0,0,0,0,0
537,2,2022-09-30T20:57:03.430211,4187905,0,0,0,0,0,0,0,0,0
538,2,2022-09-30T20:57:03.435326,4187909,0,0,0,0,0,0,0,0,0
539,2,2022-09-30T20:57:03.442429,4187916,0,0,0,0,0,0,0,0,0
540,2,2022-09-30T20:57:03.452226,4187926,0,0,0,0,0,0,0,0,0
541,2,2022-09-30T20:57:03.457529,4187931,0,0,0,0,0,0,0,0,0
542,2,2022-09-30T20:57:03.462802,4187936,0,0,0,0,0,0,0,0,0
543,2,2022-09-30T20:57:03.469843,4187943,0,0,0,0,0,0,0,0,0
544,2,2022-09-30T20:57:03.476971,4187951,0,0,0,0,0,0,0,0,0
545,2,2022-09-30T20:57:03.483296,4187957,0,0,0,0,0,0,0,0,0
546,2,2022-09-30T20:57:03.490921,4187965,0,0,0,0,0,0,0,0,0
547,2,2022-09-30T20:57:03.498120,4187971,0,0,0,0,0,0,0,0,0
548,2,2022-09-30T20:57:03.504777,4187978,0,0,0,0,0,0,0,0,0
549,2,2022-09-30T20:57:03.510497,4187983,0,0,0,0,0,0,0,0,0
550,2,2022-09-30T20:57:03.516504,4187990,0,0,0,0,0,0,0,0,0
551,2,2022-09-30T20:57:03.525576,4187999,0,0,0,0,0,0,0,0,0
552,2,2022-09-30T20:57:03.532858,4188007,0,0,0,0,0,0,0,0,0
553,2,2022-09-30T20:57:03.538059,4188012,0,0,0,0,0,0,0,0,0
554,2,2022-09-30T20:57:03.547068,4188019,0,0,0,0,0,0,0,0,0
555,2,2022-09-30T20:57:03.552417,4188026,0,0,0,0,0,0,0,0,0
556,2,2022-09-30T20:57:03.557829,4188032,0,0,0,0,0,0,0,0,0
557,2,2022-09-30T20:57:03.564857,4188039,0,0,0,0,0,0,0,0,0
558,2,2022-09-30T20:57:03.570829,4188044,0,0,0,0,0,0,0,0,0
559,2,2022-09-30T20:57:03.576887,4188050,0,0,0,0,0,0,0,0,0
560,2,2022-09-30T20:57:03.584772,4188058,0,0,0,0,0,0,0,0,0
561,2,2022-09-30T20:57:03.590155,4188064,0,0,0,0,0,0,0,0,0
562,2,2022-09-30T20:57:03.598586,4188070,0,0,0,0,0,0,0,0,0
563,2,2022-09-30T20:57:03.608540,4188083,0,0,0,0,0,0,0,0,0
564,2,2022-09-30T20:57:03.615515,4188089,0,0,0,0,0,0,0,0,0
565,2,2022-09-30T20:57:03.624449,4188098,0,0,0,0,0,0,0,0,0
566,2,2022-09-30T20:57:03.632323,4188106,0,0,0,0,0,0,0,0,0
567,2,2022-09-30T20:57:03.637764,4188111,0,0,0,0,0,0,0,0,0
568,2,2022-09-30T20:57:03.648198,4188119,0,0,0,0,0,0,0,0,0
569,2,2022-09-30T20:57:03.654628,4188128,0,0,0,0,0,0,0,0,0
570,2,2022-09-30T20:57:03.660058,4188134,0,0,0,0,0,0,0,0,0
571,2,2022-09-30T20:57:03.667540,4188140,0,0,0,0,0,0,0,0,0
572,2,2022-09-30T20:57:03.674424,4188148,0,0,0,0,0,0,0,0,0
573,2,2022-09-30T20:57:03.679988,4188153,0,0,0,0,0,0,0,0,0
574,2,2022-09-30T20:57:03.687351,4188162,0,0,0,0,0,0,0,0,0
575,2,2022-09-30T20:57:03.693473,4188167,0,0,0,0,0,0,0,0,0
576,2,2022-09-30T20:57:03.700613,4188174,0,0,0,0,0,0,0,0,0
577,2,2022-09-30T20:57:03.708985,4188183,0,0,0,0,0,0,0,0,0
578,2,2022-09-30T20:57:03.714221,4188188,0,0,0,0,0,0,0,0,0
579,2,2022-09-30T20:57:03.719984,4188193,0,0,0,0,0,0,0,0,0
580,2,2022-09-30T20:57:03.728683,4188203,0,0,0,0,0,0,0,0,0
581,2,2022-09-30T20:57:03.733828,4188208,0,0,0,0,0,0,0,0,0
582,2,2022-09-30T20:57:03.738738,4188213,0,0,0,0,0,0,0,0,0
583,2,2022-09-30T20:57:03.748575,4188221,0,0,0,0,0,0,0,0,0
584,2,2022-09-30T20:57:03.754063,4188228,0,0,0,0,0,0,0,0,0
585,2,2022-09-30T20:57:03.759386,4188233,0,0,0,0,0,0,0,0,0
586,2,2022-09-30T20:57:03.768156,4188240,0,0,0,0,0,0,0,0,0
587,2,2022-09-30T20:57:03.776447,4188250,0,0,0,0,0,0,0,0,0
588,2,2022-09-30T20:57:03.783609,4188258,0,0,0,0,0,0,0,0,0
589,2,2022-09-30T20:57:03.789004,4188263,0,0,0,0,0,0,0,0,0
590,2,2022-09-30T20:57:03.794677,4188268,0,0,0,0,0,0,0,0,0
591,2,2022-09-30T20:57:03.800979,4188274,0,0,0,0,0,0,0,0,0
592,2,2022-09-30T20:57:03.806218,4188279,0,0,0,0,0,0,0,0,0
593,2,2022-09-30T20:57:03.811701,4188285,0,0,0,0,0,0,0,0,0
594,2,2022-09-30T20:57:03.817715,4188291,0,0,0,0,0,0,0,0,0
595,2,2022-09-30T20:57:03.827426,4188301,0,0,0,0,0,0,0,0,0
596,2,2022-09-30T20:57:03.834172,4188308,0,0,0,0,0,0,0,0,0
597,2,2022-09-30T20:57:03.839406,4188313,0,0,0,0,0,0,0,0,0
598,2,2022-09-30T20:57:03.851453,4188325,0,0,0,0,0,0,0,0,0
599,2,2022-09-30T20:57:03.857623,4188332,0,0,0,0,0,0,0,0,0
600,2,2022-09-30T20:57:03.862885,4188337,0,0,0,0,0,0,0,0,0
601,2,2022-09-30T20:57:03.869620,4188343,0,0,0,0,0,0,0,0,0
602,2,2022-09-30T20:57:03.877596,4188351,0,0,0,0,0,0,0,0,0
603,2,2022-09-30T20:57:03.886162,4188360,0,0,0,0,0,0,0,0,0
604,2,2022-09-30T20:57:03.893200,4188366,0,0,0,0,0,0,0,0,0
605,2,2022-09-30T20:57:03.899540,4188374,0,0,0,0,0,0,0,0,0
606,2,2022-09-30T20:57:03.908921,4188383,0,0,0,0,0,0,0,0,0
607,2,2022-09-30T20:57:03.914182,4188388,0,0,0,0,0,0,0,0,0
608,2,2022-09-30T20:57:03.920344,4188393,0,0,0,0,0,0,0,0,0
609,2,2022-09-30T20:57:03.932160,4188406,0,0,0,0,0,0,0,0,0
610,2,2022-09-30T20:57:03.937508,4188411,0,0,0,0,0,0,0,0,0
611,2,2022-09-30T20:57:03.944681,4188417,0,0,0,0,0,0,0,0,0
612,2,2022-09-30T20:57:03.954741,4188429,0,0,0,0,0,0,0,0,0
613,2,2022-09-30T20:57:03.959864,4188434,0,0,0,0,0,0,0,0,0
614,2,2022-09-30T20:57:03.968233,4188441,0,0,0,0,0,0,0,0,0
615,2,2022-09-30T20:57:03.974346,4188447,0,0,0,0,0,0,0,0,0
616,2,2022-09-30T20:57:03.982480,4188455,0,0,0,0,0,0,0,0,0
617,2,2022-09-30T20:57:03.989491,4188464,0,0,0,0,0,0,0,0,0
618,2,2022-09-30T20:57:03.995795,4188469,0,0,0,0,0,0,0,0,0
619,2,2022-09-30T20:57:04.002721,4188476,0,0,0,0,0,0,0,0,0
620,2,2022-09-30T20:57:04.010295,4188484,0,0,0,0,0,0,0,0,0
621,2,2022-09-30T20:57:04.015576,4188489,0,0,0,0,0,0,0,0,0
622,2,2022-09-30T20:57:04.024447,4188497,0,0,0,0,0,0,0,0,0
623,2,2022-09-30T20:57:04.032611,4188506,0,0,0,0,0,0,0,0,0
624,2,2022-09-30T20:57:04.038556,4188513,0,0,0,0,0,0,0,0,0
625,2,2022-09-30T20:57:04.050004,4188522,0,0,0,0,0,0,0,0,0
626,2,2022-09-30T20:57:04.055152,4188529,0,0,0,0,0,0,0,0,0
627,2,2022-09-30T20:57:04.060398,4188534,0,0,0,0,0,0,0,0,0
628,2,2022-09-30T20:57:04.070042,4188544,0,0,0,0,0,0,0,0,0
629,2,2022-09-30T20:57:04.076625,4188551,0,0,0,0,0,0,0,0,0
630,2,2022-09-30T20:57:04.083245,4188557,0,0,0,0,0,0,0,0,0
631,2,2022-09-30T20:57:04.088432,4188562,0,0,0,0,0,0,0,0,0
632,2,2022-09-30T20:57:04.094519,4188567,0,0,0,0,0,0,0,0,0
633,2,2022-09-30T20:57:04.100688,4188574,0,0,0,0,0,0,0,0,0
634,2,2022-09-30T20:57:04.108532,4188582,0,0,0,0,0,0,0,0,0
635,2,2022-09-30T20:57:04.113943,4188588,0,0,0,0,0,0,0,0,0
636,2,2022-09-30T20:57:04.119624,4188593,0,0,0,0,0,0,0,0,0
637,2,2022-09-30T20:57:04.128994,4188603,0,0,0,0,0,0,0,0,0
638,2,2022-09-30T20:57:04.134417,4188608,0,0,0,0,0,0,0,0,0
639,2,2022-09-30T20:57:04.140395,4188614,0,0,0,0,0,0,0,0,0
640,2,2022-09-30T20:57:04.153161,4188626,0,0,0,0,0,0,0,0,0
641,2,2022-09-30T20:57:04.158317,4188632,0,0,0,0,0,0,0,0,0
642,2,2022-09-30T20:57:04.166007,4188640,0,0,0,0,0,0,0,0,0
643,2,2022-09-30T20:57:04.172333,4188646,0,0,0,0,0,0,0,0,0
644,2,2022-09-30T20:57:04.178361,4188652,0,0,0,0,0,0,0,0,0
645,2,2022-09-30T20:57:04.187021,4188660,0,0,0,0,0,0,0,0,0
646,2,2022-09-30T20:57:04.193308,4188666,0,0,0,0,0,0,0,0,0
647,2,2022-09-30T20:57:04.199606,4188674,0,0,0,0,0,0,0,0,0
648,2,2022-09-30T20:57:04.208056,4188682,0,0,0,0,0,0,0,0,0
649,2,2022-09-30T20:57:04.213527,4188688,0,0,0,0,0,0,0,0,0
650,2,2022-09-30T20:57:04.219664,4188692,0,0,0,0,0,0,0,0,0
651,2,2022-09-30T20:57:04.231026,4188705,0,0,0,0,0,0,0,0,0
652,2,2022-09-30T20:57:04.236314,4188710,0,0,0,0,0,0,0,0,0
653,2,2022-09-30T20:57:04.241736,4188716,0,0,0,0,0,0,0,0,0
654,2,2022-09-30T20:57:04.254237,4188728,0,0,0,0,0,0,0,0,0
655,2,2022-09-30T20:57:04.259319,4188733,0,0,0,0,0,0,0,0,0
656,2,2022-09-30T20:57:04.264430,4188738,0,0,0,0,0,0,0,0,0
657,2,2022-09-30T20:57:04.270574,4188743,0,0,0,0,0,0,0,0,0
658,2,2022-09-30T20:57:04.277377,4188751,0,0,0,0,0,0,0,0,0
659,2,2022-09-30T20:57:04.283441,4188758,0,0,0,0,0,0,0,0,0
660,2,2022-09-30T20:57:04.288841,4188763,0,0,0,0,0,0,0,0,0
661,2,2022-09-30T20:57:04.294562,4188768,0,0,0,0,0,0,0,0,0
662,2,2022-09-30T20:57:04.302547,4188776,0,0,0,0,0,0,0,0,0
663,2,2022-09-30T20:57:04.310623,4188784,0,0,0,0,0,0,0,0,0
664,2,2022-09-30T20:57:04.315945,4188789,0,0,0,0,0,0,0,0,0
665,2,2022-09-30T20:57:04.324895,4188797,0,0,0,0,0,0,0,0,0
666,2,2022-09-30T20:57:04.332538,4188807,0,0,0,0,0,0,0,0,0
667,2,2022-09-30T20:57:04.337701,4188812,0,0,0,0,0,0,0,0,0
668,2,2022-09-30T20:57:04.344922,4188818,0,0,0,0,0,0,0,0,0
669,2,2022-09-30T20:57:04.353413,4188827,0,0,0,0,0,0,0,0,0
670,2,2022-09-30T20:57:04.359379,4188833,0,0,0,0,0,0,0,0,0
671,2,2022-09-30T20:57:04.368297,4188841,0,0,0,0,0,0,0,0,0
672,2,2022-09-30T20:57:04.376029,4188850,0,0,0,0,0,0,0,0,0
673,2,2022-09-30T20:57:04.381261,4188855,0,0,0,0,0,0,0,0,0
674,2,2022-09-30T20:57:04.389421,4188863,0,0,0,0,0,0,0,0,0
675,2,2022-09-30T20:57:04.395979,4188868,0,0,0,0,0,0,0,0,0
676,2,2022-09-30T20:57:04.402079,4188875,0,0,0,0,0,0,0,0,0
677,2,2022-09-30T20:57:04.410064,4188883,0,0,0,0,0,0,0,0,0
678,2,2022-09-30T20:57:04.415982,4188890,0,0,0,0,0,0,0,0,0
679,2,2022-09-30T20:57:04.422906,4188896,0,0,0,0,0,0,0,0,0
680,2,2022-09-30T20:57:04.431759,4188905,0,0,0,0,0,0,0,0,0
681,2,2022-09-30T20:57:04.437258,4188911,0,0,0,0,0,0,0,0,0
682,2,2022-09-30T20:57:04.445352,4188917,0,0,0,0,0,0,0,0,0
683,2,2022-09-30T20:57:04.453860,4188928,0,0,0,0,0,0,0,0,0
684,2,2022-09-30T20:57:04.459305,4188933,0,0,0,0,0,0,0,0,0
685,2,2022-09-30T20:57:04.467736,4188941,0,0,0,0,0,0,0,0,0
686,2,2022-09-30T20:57:04.475615,4188949,0,0,0,0,0,0,0,0,0
687,2,2022-09-30T20:57:04.481545,4188955,0,0,0,0,0,0,0,0,0
688,2,2022-09-30T20:57:04.488717,4188962,0,0,0,0,0,0,0,0,0
689,2,2022-09-30T20:57:04.494507,4188967,0,0,0,0,0,0,0,0,0
690,2,2022-09-30T20:57:04.501585,4188976,0,0,0,0,0,0,0,0,0
691,2,2022-09-30T20:57:04.509512,4188984,0,0,0,0,0,0,0,0,0
692,2,2022-09-30T20:57:04.514639,4188989,0,0,0,0,0,0,0,0,0
693,2,2022-09-30T20:57:04.521163,4188994,0,0,0,0,0,0,0,0,0
694,2,2022-09-30T20:57:04.533354,4189006,0,0,0,0,0,0,0,0,0
695,2,2022-09-30T20:57:04.538751,4189012,0,0,0,0,0,0,0,0,0
696,2,2022-09-30T20:57:04.553199,4189027,0,0,0,0,0,0,0,0,0
697,2,2022-09-30T20:57:04.559767,4189033,0,0,0,0,0,0,0,0,0
698,2,2022-09-30T20:57:04.569661,4189041,0,0,0,0,0,0,0,0,0
699,2,2022-09-30T20:57:04.580983,4189054,0,0,0,0,0,0,0,0,0
700,2,2022-09-30T20:57:04.588276,4189063,0,0,0,0,0,0,0,0,0
701,2,2022-09-30T20:57:04.594659,4189068,0,0,0,0,0,0,0,0,0
702,2,2022-09-30T20:57:04.603407,4189077,0,0,0,0,0,0,0,0,0
703,2,2022-09-30T20:57:04.610845,4189085,0,0,0,0,0,0,0,0,0
704,2,2022-09-30T20:57:04.616012,4189089,0,0,0,0,0,0,0,0,0
705,2,2022-09-30T20:57:04.626236,4189101,0,0,0,0,0,0,0,0,0
706,2,2022-09-30T20:57:04.633783,4189108,0,0,0,0,0,0,0,0,0
707,2,2022-09-30T20:57:04.639098,4189113,0,0,0,0,0,0,0,0,0
708,2,2022-09-30T20:57:04.650451,4189124,0,0,0,0,0,0,0,0,0
709,2,2022-09-30T20:57:04.656559,4189130,0,0,0,0,0,0,0,0,0
710,2,2022-09-30T20:57:04.662957,4189136,0,0,0,0,0,0,0,0,0
711,2,2022-09-30T20:57:04.671733,4189146,0,0,0,0,0,0,0,0,0
712,2,2022-09-30T20:57:04.678299,4189152,0,0,0,0,0,0,0,0,0
713,2,2022-09-30T20:57:04.685647,4189160,0,0,0,0,0,0,0,0,0
714,2,2022-09-30T20:57:04.690996,4189165,0,0,0,0,0,0,0,0,0
715,2,2022-09-30T20:57:04.698203,4189171,0,0,0,0,0,0,0,0,0
716,2,2022-09-30T20:57:04.705224,4189179,0,0,0,0,0,0,0,0,0
717,2,2022-09-30T20:57:04.710645,4189185,0,0,0,0,0,0,0,0,0
718,2,2022-09-30T20:57:04.716287,4189191,0,0,0,0,0,0,0,0,0
719,2,2022-09-30T20:57:04.723550,4189197,0,0,0,0,0,0,0,0,0
720,2,2022-09-30T20:57:04.731413,4189205,0,0,0,0,0,0,0,0,0
721,2,2022-09-30T20:57:04.736978,4189210,0,0,0,0,0,0,0,0,0
722,2,2022-09-30T20:57:04.744362,4189217,0,0,0,0,0,0,0,0,0
723,2,2022-09-30T20:57:04.753888,4189228,0,0,0,0,0,0,0,0,0
724,2,2022-09-30T20:57:04.759194,4189233,0,0,0,0,0,0,0,0,0
725,2,2022-09-30T20:57:04.766285,4189240,0,0,0,0,0,0,0,0,0
726,2,2022-09-30T20:57:04.775384,4189248,0,0,0,0,0,0,0,0,0
727,2,2022-09-30T20:57:04.781754,4189255,0,0,0,0,0,0,0,0,0
728,2,2022-09-30T20:57:04.787119,4189261,0,0,0,0,0,0,0,0,0
729,2,2022-09-30T20:57:04.792431,4189266,0,0,0,0,0,0,0,0,0
730,2,2022-09-30T20:57:04.799789,4189274,0,0,0,0,0,0,0,0,0
731,2,2022-09-30T20:57:04.808611,4189283,0,0,0,0,0,0,0,0,0
732,2,2022-09-30T20:57:04.813357,4189287,0,0,0,0,0,0,0,0,0
733,2,2022-09-30T20:57:04.819142,4189292,0,0,0,0,0,0,0,0,0
734,2,2022-09-30T20:57:04.831765,4189305,0,0,0,0,0,0,0,0,0
735,2,2022-09-30T20:57:04.836903,4189312,0,0,0,0,0,0,0,0,0
736,2,2022-09-30T20:57:04.844951,4189318,0,0,0,0,0,0,0,0,0
737,2,2022-09-30T20:57:04.855768,4189329,0,0,0,0,0,0,0,0,0
738,2,2022-09-30T20:57:04.862556,4189336,0,0,0,0,0,0,0,0,0
739,2,2022-09-30T20:57:04.879599,4189347,0,0,0,0,0,0,0,0,0
740,2,2022-09-30T20:57:04.887486,4189362,0,0,0,0,0,0,0,0,0
741,2,2022-09-30T20:57:04.901478,4189373,0,0,0,0,0,0,0,0,0
742,2,2022-09-30T20:57:04.914751,4189386,0,0,0,0,0,0,0,0,0
743,2,2022-09-30T20:57:04.921508,4189394,0,0,0,0,0,0,0,0,0
744,2,2022-09-30T20:57:04.932201,4189406,0,0,0,0,0,0,0,0,0
745,2,2022-09-30T20:57:04.937363,4189411,0,0,0,0,0,0,0,0,0
746,2,2022-09-30T20:57:04.946201,4189418,0,0,0,0,0,0,0,0,0
747,2,2022-09-30T20:57:04.956364,4189430,0,0,0,0,0,0,0,0,0
748,2,2022-09-30T20:57:04.961582,4189435,0,0,0,0,0,0,0,0,0
749,2,2022-09-30T20:57:04.971299,4189445,0,0,0,0,0,0,0,0,0
750,2,2022-09-30T20:57:04.977890,4189452,0,0,0,0,0,0,0,0,0
751,2,2022-09-30T20:57:04.988345,4189462,0,0,0,0,0,0,0,0,0
752,2,2022-09-30T20:57:04.997513,4189469,0,0,0,0,0,0,0,0,0
753,2,2022-09-30T20:57:05.003175,4189476,0,0,0,0,0,0,0,0,0
754,2,2022-09-30T20:57:05.010171,4189484,0,0,0,0,0,0,0,0,0
755,2,2022-09-30T20:57:05.015885,4189490,0,0,0,0,0,0,0,0,0
756,2,2022-09-30T20:57:05.021666,4189496,0,0,0,0,0,0,0,0,0
757,2,2022-09-30T20:57:05.029961,4189503,0,0,0,0,0,0,0,0,0
758,2,2022-09-30T20:57:05.036222,4189510,0,0,0,0,0,0,0,0,0
759,2,2022-09-30T20:57:05.041706,4189515,0,0,0,0,0,0,0,0,0
760,2,2022-09-30T20:57:05.053885,4189528,0,0,0,0,0,0,0,0,0
761,2,2022-09-30T20:57:05.059443,4189533,0,0,0,0,0,0,0,0,0
762,2,2022-09-30T20:57:05.064923,4189539,0,0,0,0,0,0,0,0,0
763,2,2022-09-30T20:57:05.071270,4189544,0,0,0,0,0,0,0,0,0
764,2,2022-09-30T20:57:05.077172,4189551,0,0,0,0,0,0,0,0,0
765,2,2022-09-30T20:57:05.082616,4189556,0,0,0,0,0,0,0,0,0
766,2,2022-09-30T20:57:05.089747,4189563,0,0,0,0,0,0,0,0,0
767,2,2022-09-30T20:57:05.096682,4189569,0,0,0,0,0,0,0,0,0
768,2,2022-09-30T20:57:05.104096,4189578,0,0,0,0,0,0,0,0,0
769,2,2022-09-30T20:57:05.111580,4189586,0,0,0,0,0,0,0,0,0
770,2,2022-09-30T20:57:05.117321,4189591,0,0,0,0,0,0,0,0,0
771,2,2022-09-30T20:57:05.124314,4189598,0,0,0,0,0,0,0,0,0
772,2,2022-09-30T20:57:05.132523,4189606,0,0,0,0,0,0,0,0,0
773,2,2022-09-30T20:57:05.138437,4189613,0,0,0,0,0,0,0,0,0
774,2,2022-09-30T20:57:05.146518,4189619,0,0,0,0,0,0,0,0,0
775,2,2022-09-30T20:57:05.152027,4189626,0,0,0,0,0,0,0,0,0
776,2,2022-09-30T20:57:05.158485,4189632,0,0,0,0,0,0,0,0,0
777,2,2022-09-30T20:57:05.167189,4189640,0,0,0,0,0,0,0,0,0
778,2,2022-09-30T20:57:05.175015,4189648,0,0,0,0,0,0,0,0,0
779,2,2022-09-30T20:57:05.180741,4189654,0,0,0,0,0,0,0,0,0
780,2,2022-09-30T20:57:05.191816,4189666,0,0,0,0,0,0,0,0,0
781,2,2022-09-30T20:57:05.197954,4189672,0,0,0,0,0,0,0,0,0
782,2,2022-09-30T20:57:05.203289,4189677,0,0,0,0,0,0,0,0,0
783,2,2022-09-30T20:57:05.208664,4189682,0,0,0,0,0,0,0,0,0
784,2,2022-09-30T20:57:05.213775,4189687,0,0,0,0,0,0,0,0,0
785,2,2022-09-30T20:57:05.219210,4189693,0,0,0,0,0,0,0,0,0
786,2,2022-09-30T20:57:05.227119,4189701,0,0,0,0,0,0,0,0,0
787,2,2022-09-30T20:57:05.232487,4189707,0,0,0,0,0,0,0,0,0
788,2,2022-09-30T20:57:05.237698,4189712,0,0,0,0,0,0,0,0,0
789,2,2022-09-30T20:57:05.245785,4189718,0,0,0,0,0,0,0,0,0
790,2,2022-09-30T20:57:05.254270,4189728,0,0,0,0,0,0,0,0,0
791,2,2022-09-30T20:57:05.259843,4189733,0,0,0,0,0,0,0,0,0
792,2,2022-09-30T20:57:05.264800,4189739,0,0,0,0,0,0,0,0,0
793,2,2022-09-30T20:57:05.271729,4189744,0,0,0,0,0,0,0,0,0
794,2,2022-09-30T20:57:05.278438,4189752,0,0,0,0,0,0,0,0,0
795,2,2022-09-30T20:57:05.286558,4189761,0,0,0,0,0,0,0,0,0
796,2,2022-09-30T20:57:05.291896,4189766,0,0,0,0,0,0,0,0,0
797,2,2022-09-30T20:57:05.298555,4189772,0,0,0,0,0,0,0,0,0
798,2,2022-09-30T20:57:05.307404,4189782,0,0,0,0,0,0,0,0,0
799,2,2022-09-30T20:57:05.312745,4189787,0,0,0,0,0,0,0,0,0
800,2,2022-09-30T20:57:05.319700,4189792,0,0,0,0,0,0,0,0,0
801,2,2022-09-30T20:57:05.329557,4189803,0,0,0,0,0,0,0,0,0
802,2,2022-09-30T20:57:05.336504,4189810,0,0,0,0,0,0,0,0,0
803,2,2022-09-30T20:57:05.342882,4189816,0,0,0,0,0,0,0,0,0
804,2,2022-09-30T20:57:05.354293,4189828,0,0,0,0,0,0,0,0,0
805,2,2022-09-30T20:57:05.361639,4189835,0,0,0,0,0,0,0,0,0
806,2,2022-09-30T20:57:05.369674,4189843,0,0,0,0,0,0,0,0,0
807,2,2022-09-30T20:57:05.375788,4189849,0,0,0,0,0,0,0,0,0
808,2,2022-09-30T20:57:05.380900,4189855,0,0,0,0,0,0,0,0,0
809,2,2022-09-30T20:57:05.387528,4189861,0,0,0,0,0,0,0,0,0
810,2,2022-09-30T20:57:05.392694,4189867,0,0,0,0,0,0,0,0,0
811,2,2022-09-30T20:57:05.398968,4189873,0,0,0,0,0,0,0,0,0
812,2,2022-09-30T20:57:05.407919,4189882,0,0,0,0,0,0,0,0,0
813,2,2022-09-30T20:57:05.413298,4189887,0,0,0,0,0,0,0,0,0
814,2,2022-09-30T20:57:05.419149,4189892,0,0,0,0,0,0,0,0,0
815,2,2022-09-30T20:57:05.429535,4189903,0,0,0,0,0,0,0,0,0
816,2,2022-09-30T20:57:05.435133,4189908,0,0,0,0,0,0,0,0,0
817,2,2022-09-30T20:57:05.440514,4189915,0,0,0,0,0,0,0,0,0
818,2,2022-09-30T20:57:05.453085,4189927,0,0,0,0,0,0,0,0,0
819,2,2022-09-30T20:57:05.458323,4189932,0,0,0,0,0,0,0,0,0
820,2,2022-09-30T20:57:05.465653,4189939,0,0,0,0,0,0,0,0,0
821,2,2022-09-30T20:57:05.472397,4189944,0,0,0,0,0,0,0,0,0
822,2,2022-09-30T20:57:05.479096,4189953,0,0,0,0,0,0,0,0,0
823,2,2022-09-30T20:57:05.487482,4189961,0,0,0,0,0,0,0,0,0
824,2,2022-09-30T20:57:05.492866,4189967,0,0,0,0,0,0,0,0,0
825,2,2022-09-30T20:57:05.499660,4189973,0,0,0,0,0,0,0,0,0
826,2,2022-09-30T20:57:05.508865,4189982,0,0,0,0,0,0,0,0,0
827,2,2022-09-30T20:57:05.515030,4189988,0,0,0,0,0,0,0,0,0
828,2,2022-09-30T20:57:05.521621,4189995,0,0,0,0,0,0,0,0,0
829,2,2022-09-30T20:57:05.531090,4190005,0,0,0,0,0,0,0,0,0
830,2,2022-09-30T20:57:05.537064,4190011,0,0,0,0,0,0,0,0,0
831,2,2022-09-30T20:57:05.542765,4190016,0,0,0,0,0,0,0,0,0
832,2,2022-09-30T20:57:05.557241,4190030,0,0,0,0,0,0,0,0,0
833,2,2022-09-30T20:57:05.562161,4190036,0,0,0,0,0,0,0,0,0
834,2,2022-09-30T20:57:05.568775,4190043,0,0,0,0,0,0,0,0,0
835,2,2022-09-30T20:57:05.574934,4190049,0,0,0,0,0,0,0,0,0
836,2,2022-09-30T20:57:05.581218,4190055,0,0,0,0,0,0,0,0,0
837,2,2022-09-30T20:57:05.589116,4190063,0,0,0,0,0,0,0,0,0
838,2,2022-09-30T20:57:05.595274,4190068,0,0,0,0,0,0,0,0,0
839,2,2022-09-30T20:57:05.602726,4190075,0,0,0,0,0,0,0,0,0
840,2,2022-09-30T20:57:05.610268,4190085,0,0,0,0,0,0,0,0,0
841,2,2022-09-30T20:57:05.615823,4190090,0,0,0,0,0,0,0,0,0
842,2,2022-09-30T20:57:05.624006,4190097,0,0,0,0,0,0,0,0,0
843,2,2022-09-30T20:57:05.633311,4190107,0,0,0,0,0,0,0,0,0
844,2,2022-09-30T20:57:05.638285,4190112,0,0,0,0,0,0,0,0,0
845,2,2022-09-30T20:57:05.649869,4190119,0,0,0,0,0,0,0,0,0
846,2,2022-09-30T20:57:05.655832,4190130,0,0,0,0,0,0,0,0,0
847,2,2022-09-30T20:57:05.660956,4190135,0,0,0,0,0,0,0,0,0
848,2,2022-09-30T20:57:05.668820,4190142,0,0,0,0,0,0,0,0,0
849,2,2022-09-30T20:57:05.675906,4190150,0,0,0,0,0,0,0,0,0
850,2,2022-09-30T20:57:05.681867,4190155,0,0,0,0,0,0,0,0,0
851,2,2022-09-30T20:57:05.688585,4190162,0,0,0,0,0,0,0,0,0
852,2,2022-09-30T20:57:05.695020,4190168,0,0,0,0,0,0,0,0,0
853,2,2022-09-30T20:57:05.701539,4190176,0,0,0,0,0,0,0,0,0
854,2,2022-09-30T20:57:05.710960,4190185,0,0,0,0,0,0,0,0,0
855,2,2022-09-30T20:57:05.717816,4190190,0,0,0,0,0,0,0,0,0
856,2,2022-09-30T20:57:05.725420,4190198,0,0,0,0,0,0,0,0,0
857,2,2022-09-30T20:57:05.733505,4190208,0,0,0,0,0,0,0,0,0
858,2,2022-09-30T20:57:05.738876,4190213,0,0,0,0,0,0,0,0,0
859,2,2022-09-30T20:57:05.749390,4190222,0,0,0,0,0,0,0,0,0
860,2,2022-09-30T20:57:05.754808,4190229,0,0,0,0,0,0,0,0,0
861,2,2022-09-30T20:57:05.760026,4190234,0,0,0,0,0,0,0,0,0
862,2,2022-09-30T20:57:05.769658,4190242,0,0,0,0,0,0,0,0,0
863,2,2022-09-30T20:57:05.776723,4190251,0,0,0,0,0,0,0,0,0
864,2,2022-09-30T20:57:05.782047,4190256,0,0,0,0,0,0,0,0,0
865,2,2022-09-30T20:57:05.790989,4190265,0,0,0,0,0,0,0,0,0
866,2,2022-09-30T20:57:05.798143,4190271,0,0,0,0,0,0,0,0,0
867,2,2022-09-30T20:57:05.804390,4190278,0,0,0,0,0,0,0,0,0
868,2,2022-09-30T20:57:05.812183,4190286,0,0,0,0,0,0,0,0,0
869,2,2022-09-30T20:57:05.817908,4190291,0,0,0,0,0,0,0,0,0
870,2,2022-09-30T20:57:05.826475,4190300,0,0,0,0,0,0,0,0,0
871,2,2022-09-30T20:57:05.833356,4190307,0,0,0,0,0,0,0,0,0
872,2,2022-09-30T20:57:05.838848,4190313,0,0,0,0,0,0,0,0,0
873,2,2022-09-30T20:57:05.847844,4190320,0,0,0,0,0,0,0,0,0
874,2,2022-09-30T20:57:05.853517,4190327,0,0,0,0,0,0,0,0,0
875,2,2022-09-30T20:57:05.859538,4190333,0,0,0,0,0,0,0,0,0
876,2,2022-09-30T20:57:05.869829,4190343,0,0,0,0,0,0,0,0,0
877,2,2022-09-30T20:57:05.875851,4190350,0,0,0,0,0,0,0,0,0
878,2,2022-09-30T20:57:05.882552,4190356,0,0,0,0,0,0,0,0,0
879,2,2022-09-30T20:57:05.892195,4190366,0,0,0,0,0,0,0,0,0
880,2,2022-09-30T20:57:05.898975,4190372,0,0,0,0,0,0,0,0,0
881,2,2022-09-30T20:57:05.909717,4190384,0,0,0,0,0,0,0,0,0
882,2,2022-09-30T20:57:05.914913,4190389,0,0,0,0,0,0,0,0,0
883,2,2022-09-30T20:57:05.920484,4190394,0,0,0,0,0,0,0,0,0
884,2,2022-09-30T20:57:05.932413,4190406,0,0,0,0,0,0,0,0,0
885,2,2022-09-30T20:57:05.937716,4190411,0,0,0,0,0,0,0,0,0
886,2,2022-09-30T20:57:05.943352,4190416,0,0,0,0,0,0,0,0,0
887,2,2022-09-30T20:57:05.955358,4190429,0,0,0,0,0,0,0,0,0
888,2,2022-09-30T20:57:05.960580,4190435,0,0,0,0,0,0,0,0,0
889,2,2022-09-30T20:57:05.966140,4190440,0,0,0,0,0,0,0,0,0
890,2,2022-09-30T20:57:05.973523,4190446,0,0,0,0,0,0,0,0,0
891,2,2022-09-30T20:57:05.979557,4190453,0,0,0,0,0,0,0,0,0
892,2,2022-09-30T20:57:05.989761,4190464,0,0,0,0,0,0,0,0,0
893,2,2022-09-30T20:57:05.995964,4190469,0,0,0,0,0,0,0,0,0
894,2,2022-09-30T20:57:06.002916,4190476,0,0,0,0,0,0,0,0,0
895,2,2022-09-30T20:57:06.011043,4190485,0,0,0,0,0,0,0,0,0
896,2,2022-09-30T20:57:06.016939,4190490,0,0,0,0,0,0,0,0,0
897,2,2022-09-30T20:57:06.024779,4190498,0,0,0,0,0,0,0,0,0
898,2,2022-09-30T20:57:06.034646,4190509,0,0,0,0,0,0,0,0,0
899,2,2022-09-30T20:57:06.040303,4190514,0,0,0,0,0,0,0,0,0
900,2,2022-09-30T20:57:06.052252,4190526,0,0,0,0,0,0,0,0,0
901,2,2022-09-30T20:57:06.058017,4190532,0,0,0,0,0,0,0,0,0
902,2,2022-09-30T20:57:06.063434,4190537,0,0,0,0,0,0,0,0,0
903,2,2022-09-30T20:57:06.073959,4190547,0,0,0,0,0,0,0,0,0
904,2,2022-09-30T20:57:06.079947,4190554,0,0,0,0,0,0,0,0,0
905,2,2022-09-30T20:57:06.085736,4190559,0,0,0,0,0,0,0,0,0
906,2,2022-09-30T20:57:06.091602,4190566,0,0,0,0,0,0,0,0,0
907,2,2022-09-30T20:57:06.098883,4190572,0,0,0,0,0,0,0,0,0
908,2,2022-09-30T20:57:06.104784,4190578,0,0,0,0,0,0,0,0,0
909,2,2022-09-30T20:57:06.112688,4190586,0,0,0,0,0,0,0,0,0
910,2,2022-09-30T20:57:06.118626,4190592,0,0,0,0,0,0,0,0,0
911,2,2022-09-30T20:57:06.125166,4190599,0,0,0,0,0,0,0,0,0
912,2,2022-09-30T20:57:06.134001,4190608,0,0,0,0,0,0,0,0,0
913,2,2022-09-30T20:57:06.139263,4190613,0,0,0,0,0,0,0,0,0
914,2,2022-09-30T20:57:06.148839,4190622,0,0,0,0,0,0,0,0,0
915,2,2022-09-30T20:57:06.155181,4190628,0,0,0,0,0,0,0,0,0
916,2,2022-09-30T20:57:06.160981,4190636,0,0,0,0,0,0,0,0,0
917,2,2022-09-30T20:57:06.169675,4190643,0,0,0,0,0,0,0,0,0
918,2,2022-09-30T20:57:06.176929,4190651,0,0,0,0,0,0,0,0,0
919,2,2022-09-30T20:57:06.184631,4190658,0,0,0,0,0,0,0,0,0
920,2,2022-09-30T20:57:06.193565,4190667,0,0,0,0,0,0,0,0,0
921,2,2022-09-30T20:57:06.201147,4190674,0,0,0,0,0,0,0,0,0
922,2,2022-09-30T20:57:06.209948,4190684,0,0,0,0,0,0,0,0,0
923,2,2022-09-30T20:57:06.215409,4190690,0,0,0,0,0,0,0,0,0
924,2,2022-09-30T20:57:06.221432,4190695,0,0,0,0,0,0,0,0,0
925,2,2022-09-30T20:57:06.233144,4190707,0,0,0,0,0,0,0,0,0
926,2,2022-09-30T20:57:06.238563,4190712,0,0,0,0,0,0,0,0,0
927,2,2022-09-30T20:57:06.245163,4190717,0,0,0,0,0,0,0,0,0
928,2,2022-09-30T20:57:06.254319,4190728,0,0,0,0,0,0,0,0,0
929,2,2022-09-30T20:57:06.259691,4190734,0,0,0,0,0,0,0,0,0
930,2,2022-09-30T20:57:06.267170,4190741,0,0,0,0,0,0,0,0,0
931,2,2022-09-30T20:57:06.275537,4190748,0,0,0,0,0,0,0,0,0
932,2,2022-09-30T20:57:06.282686,4190756,0,0,0,0,0,0,0,0,0
933,2,2022-09-30T20:57:06.290748,4190765,0,0,0,0,0,0,0,0,0
934,2,2022-09-30T20:57:06.296946,4190770,0,0,0,0,0,0,0,0,0
935,2,2022-09-30T20:57:06.303531,4190778,0,0,0,0,0,0,0,0,0
936,2,2022-09-30T20:57:06.311695,4190786,0,0,0,0,0,0,0,0,0
937,2,2022-09-30T20:57:06.317567,4190791,0,0,0,0,0,0,0,0,0
938,2,2022-09-30T20:57:06.325662,4190799,0,0,0,0,0,0,0,0,0
939,2,2022-09-30T20:57:06.335119,4190809,0,0,0,0,0,0,0,0,0
940,2,2022-09-30T20:57:06.340939,4190815,0,0,0,0,0,0,0,0,0
941,2,2022-09-30T20:57:06.352923,4190827,0,0,0,0,0,0,0,0,0
942,2,2022-09-30T20:57:06.358316,4190832,0,0,0,0,0,0,0,0,0
943,2,2022-09-30T20:57:06.364020,4190838,0,0,0,0,0,0,0,0,0
944,2,2022-09-30T20:57:06.372366,4190845,0,0,0,0,0,0,0,0,0
945,2,2022-09-30T20:57:06.380615,4190854,0,0,0,0,0,0,0,0,0
946,2,2022-09-30T20:57:06.388540,4190863,0,0,0,0,0,0,0,0,0
947,2,2022-09-30T20:57:06.395051,4190868,0,0,0,0,0,0,0,0,0
948,2,2022-09-30T20:57:06.401468,4190875,0,0,0,0,0,0,0,0,0
949,2,2022-09-30T20:57:06.409652,4190883,0,0,0,0,0,0,0,0,0
950,2,2022-09-30T20:57:06.415660,4190889,0,0,0,0,0,0,0,0,0
951,2,2022-09-30T20:57:06.421715,4190895,0,0,0,0,0,0,0,0,0
952,2,2022-09-30T20:57:06.431879,4190906,0,0,0,0,0,0,0,0,0
953,2,2022-09-30T20:57:06.437906,4190912,0,0,0,0,0,0,0,0,0
954,2,2022-09-30T20:57:06.443797,4190917,0,0,0,0,0,0,0,0,0
955,2,2022-09-30T20:57:06.457238,4190931,0,0,0,0,0,0,0,0,0
956,2,2022-09-30T20:57:06.462586,4190937,0,0,0,0,0,0,0,0,0
957,2,2022-09-30T20:57:06.471025,4190945,0,0,0,0,0,0,0,0,0
958,2,2022-09-30T20:57:06.476993,4190951,0,0,0,0,0,0,0,0,0
959,2,2022-09-30T20:57:06.483949,4190958,0,0,0,0,0,0,0,0,0
960,2,2022-09-30T20:57:06.492301,4190966,0,0,0,0,0,0,0,0,0
961,2,2022-09-30T20:57:06.499433,4190972,0,0,0,0,0,0,0,0,0
962,2,2022-09-30T20:57:06.509458,4190984,0,0,0,0,0,0,0,0,0
963,2,2022-09-30T20:57:06.515854,4190990,0,0,0,0,0,0,0,0,0
964,2,2022-09-30T20:57:06.522711,4190995,0,0,0,0,0,0,0,0,0
965,2,2022-09-30T20:57:06.560533,4191035,0,0,0,0,0,0,0,0,0
966,2,2022-09-30T20:57:06.568861,4191042,0,0,0,0,0,0,0,0,0
967,2,2022-09-30T20:57:06.575200,4191048,0,0,0,0,0,0,0,0,0
968,2,2022-09-30T20:57:06.580554,4191054,0,0,0,0,0,0,0,0,0
969,2,2022-09-30T20:57:06.587495,4191062,0,0,0,0,0,0,0,0,0
970,2,2022-09-30T20:57:06.593230,4191067,0,0,0,0,0,0,0,0,0
971,2,2022-09-30T20:57:06.601039,4191075,0,0,0,0,0,0,0,0,0
972,2,2022-09-30T20:57:06.608923,4191083,0,0,0,0,0,0,0,0,0
973,2,2022-09-30T20:57:06.614283,4191088,0,0,0,0,0,0,0,0,0
974,2,2022-09-30T20:57:06.621957,4191094,0,0,0,0,0,0,0,0,0
975,2,2022-09-30T20:57:06.631065,4191105,0,0,0,0,0,0,0,0,0
976,2,2022-09-30T20:57:06.636290,4191111,0,0,0,0,0,0,0,0,0
977,2,2022-09-30T20:57:06.641950,4191116,0,0,0,0,0,0,0,0,0
978,2,2022-09-30T20:57:06.654365,4191128,0,0,0,0,0,0,0,0,0
979,2,2022-09-30T20:57:06.660375,4191134,0,0,0,0,0,0,0,0,0
980,2,2022-09-30T20:57:06.670240,4191143,0,0,0,0,0,0,0,0,0
981,2,2022-09-30T20:57:06.677086,4191151,0,0,0,0,0,0,0,0,0
982,2,2022-09-30T20:57:06.682380,4191157,0,0,0,0,0,0,0,0,0
983,2,2022-09-30T20:57:06.690130,4191164,0,0,0,0,0,0,0,0,0
984,2,2022-09-30T20:57:06.696558,4191169,0,0,0,0,0,0,0,0,0
985,2,2022-09-30T20:57:06.702580,4191176,0,0,0,0,0,0,0,0,0
986,2,2022-09-30T20:57:06.711796,4191185,0,0,0,0,0,0,0,0,0
987,2,2022-09-30T20:57:06.717018,4191191,0,0,0,0,0,0,0,0,0
988,2,2022-09-30T20:57:06.722895,4191197,0,0,0,0,0,0,0,0,0
989,2,2022-09-30T20:57:06.732744,4191207,0,0,0,0,0,0,0,0,0
990,2,2022-09-30T20:57:06.738097,4191212,0,0,0,0,0,0,0,0,0
991,2,2022-09-30T20:57:06.745708,4191218,0,0,0,0,0,0,0,0,0
992,2,2022-09-30T20:57:06.755119,4191229,0,0,0,0,0,0,0,0,0
993,2,2022-09-30T20:57:06.761460,4191235,0,0,0,0,0,0,0,0,0
994,2,2022-09-30T20:57:06.771351,4191244,0,0,0,0,0,0,0,0,0
995,2,2022-09-30T20:57:06.779525,4191253,0,0,0,0,0,0,0,0,0
996,2,2022-09-30T20:57:06.787964,4191261,0,0,0,0,0,0,0,0,0
997,2,2022-09-30T20:57:06.796309,4191269,0,0,0,0,0,0,0,0,0
998,2,2022-09-30T20:57:06.803543,4191277,0,0,0,0,0,0,0,0,0
999,2,2022-09-30T20:57:06.812216,4191286,0,0,0,0,0,0,0,0,0
1000,2,2022-09-30T20:57:06.817379,4191292,0,0,0,0,0,0,0,0,0
1001,2,2022-09-30T20:57:06.824057,4191297,0,0,0,0,0,0,0,0,0
1002,2,2022-09-30T20:57:06.832273,4191305,0,0,0,0,0,0,0,0,0
1003,2,2022-09-30T20:57:06.838573,4191311,0,0,0,0,0,0,0,0,0
1004,2,2022-09-30T20:57:06.846104,4191319,0,0,0,0,0,0,0,0,0
1005,2,2022-09-30T20:57:06.857090,4191331,0,0,0,0,0,0,0,0,0
1006,2,2022-09-30T20:57:06.862582,4191337,0,0,0,0,0,0,0,0,0
1007,2,2022-09-30T20:57:06.871690,4191344,0,0,0,0,0,0,0,0,0
1008,2,2022-09-30T20:57:06.878605,4191352,0,0,0,0,0,0,0,0,0
1009,2,2022-09-30T20:57:06.884802,4191358,0,0,0,0,0,0,0,0,0
1010,2,2022-09-30T20:57:06.894235,4191367,0,0,0,0,0,0,0,0,0
1011,2,2022-09-30T20:57:06.903540,4191377,0,0,0,0,0,0,0,0,0
1012,2,2022-09-30T20:57:06.913128,4191387,0,0,0,0,0,0,0,0,0
1013,2,2022-09-30T20:57:06.918811,4191392,0,0,0,0,0,0,0,0,0
1014,2,2022-09-30T20:57:06.925996,4191399,0,0,0,0,0,0,0,0,0
1015,2,2022-09-30T20:57:06.936142,4191410,0,0,0,0,0,0,0,0,0
1016,2,2022-09-30T20:57:06.943020,4191417,0,0,0,0,0,0,0,0,0
1017,2,2022-09-30T20:57:06.951172,4191425,0,0,0,0,0,0,0,0,0
1018,2,2022-09-30T20:57:06.957098,4191431,0,0,0,0,0,0,0,0,0
1019,2,2022-09-30T20:57:06.962143,4191436,0,0,0,0,0,0,0,0,0
1020,2,2022-09-30T20:57:06.970377,4191443,0,0,0,0,0,0,0,0,0
1021,2,2022-09-30T20:57:06.977251,4191452,0,0,0,0,0,0,0,0,0
1022,2,2022-09-30T20:57:06.983073,4191457,0,0,0,0,0,0,0,0,0
1023,2,2022-09-30T20:57:06.991731,4191466,0,0,0,0,0,0,0,0,0
1024,2,2022-09-30T20:57:06.999430,4191471,0,0,0,0,0,0,0,0,0
1025,2,2022-09-30T20:57:07.006019,4191479,0,0,0,0,0,0,0,0,0
1026,2,2022-09-30T20:57:07.014541,4191489,0,0,0,0,0,0,0,0,0
1027,2,2022-09-30T20:57:07.021152,4191494,0,0,0,0,0,0,0,0,0
1028,2,2022-09-30T20:57:07.034795,4191508,0,0,0,0,0,0,0,0,0
1029,2,2022-09-30T20:57:07.041085,4191514,0,0,0,0,0,0,0,0,0
1030,2,2022-09-30T20:57:07.053562,4191527,0,0,0,0,0,0,0,0,0
1031,2,2022-09-30T20:57:07.059745,4191534,0,0,0,0,0,0,0,0,0
1032,2,2022-09-30T20:57:07.066542,4191541,0,0,0,0,0,0,0,0,0
1033,2,2022-09-30T20:57:07.072895,4191546,0,0,0,0,0,0,0,0,0
1034,2,2022-09-30T20:57:07.079556,4191553,0,0,0,0,0,0,0,0,0
1035,2,2022-09-30T20:57:07.086773,4191560,0,0,0,0,0,0,0,0,0
1036,2,2022-09-30T20:57:07.095307,4191567,0,0,0,0,0,0,0,0,0
1037,2,2022-09-30T20:57:07.101817,4191576,0,0,0,0,0,0,0,0,0
1038,2,2022-09-30T20:57:07.111271,4191585,0,0,0,0,0,0,0,0,0
1039,2,2022-09-30T20:57:07.117047,4191591,0,0,0,0,0,0,0,0,0
1040,2,2022-09-30T20:57:07.124310,4191597,0,0,0,0,0,0,0,0,0
1041,2,2022-09-30T20:57:07.134512,4191607,0,0,0,0,0,0,0,0,0
1042,2,2022-09-30T20:57:07.140859,4191614,0,0,0,0,0,0,0,0,0
1043,2,2022-09-30T20:57:07.151534,4191625,0,0,0,0,0,0,0,0,0
1044,2,2022-09-30T20:57:07.156791,4191631,0,0,0,0,0,0,0,0,0
1045,2,2022-09-30T20:57:07.162767,4191636,0,0,0,0,0,0,0,0,0
1046,2,2022-09-30T20:57:07.173118,4191647,0,0,0,0,0,0,0,0,0
1047,2,2022-09-30T20:57:07.179171,4191653,0,0,0,0,0,0,0,0,0
1048,2,2022-09-30T20:57:07.185802,4191660,0,0,0,0,0,0,0,0,0
1049,2,2022-09-30T20:57:07.193297,4191667,0,0,0,0,0,0,0,0,0
1050,2,2022-09-30T20:57:07.201244,4191675,0,0,0,0,0,0,0,0,0
1051,2,2022-09-30T20:57:07.209393,4191683,0,0,0,0,0,0,0,0,0
1052,2,2022-09-30T20:57:07.214700,4191689,0,0,0,0,0,0,0,0,0
1053,2,2022-09-30T20:57:07.220272,4191694,0,0,0,0,0,0,0,0,0
1054,2,2022-09-30T20:57:07.228036,4191702,0,0,0,0,0,0,0,0,0
1055,2,2022-09-30T20:57:07.233556,4191708,0,0,0,0,0,0,0,0,0
1056,2,2022-09-30T20:57:07.238682,4191713,0,0,0,0,0,0,0,0,0
1057,2,2022-09-30T20:57:07.245929,4191719,0,0,0,0,0,0,0,0,0
1058,2,2022-09-30T20:57:07.254560,4191728,0,0,0,0,0,0,0,0,0
1059,2,2022-09-30T20:57:07.260725,4191734,0,0,0,0,0,0,0,0,0
1060,2,2022-09-30T20:57:07.270973,4191744,0,0,0,0,0,0,0,0,0
1061,2,2022-09-30T20:57:07.278005,4191752,0,0,0,0,0,0,0,0,0
1062,2,2022-09-30T20:57:07.284991,4191758,0,0,0,0,0,0,0,0,0
1063,2,2022-09-30T20:57:07.293544,4191767,0,0,0,0,0,0,0,0,0
1064,2,2022-09-30T20:57:07.301269,4191775,0,0,0,0,0,0,0,0,0
1065,2,2022-09-30T20:57:07.310094,4191783,0,0,0,0,0,0,0,0,0
1066,2,2022-09-30T20:57:07.315960,4191790,0,0,0,0,0,0,0,0,0
1067,2,2022-09-30T20:57:07.322397,4191796,0,0,0,0,0,0,0,0,0
1068,2,2022-09-30T20:57:07.334134,4191808,0,0,0,0,0,0,0,0,0
1069,2,2022-09-30T20:57:07.340008,4191814,0,0,0,0,0,0,0,0,0
1070,2,2022-09-30T20:57:07.349382,4191820,0,0,0,0,0,0,0,0,0
1071,2,2022-09-30T20:57:07.358968,4191833,0,0,0,0,0,0,0,0,0
1072,2,2022-09-30T20:57:07.365592,4191839,0,0,0,0,0,0,0,0,0
1073,2,2022-09-30T20:57:07.379402,4191852,0,0,0,0,0,0,0,0,0
1074,2,2022-09-30T20:57:07.385707,4191859,0,0,0,0,0,0,0,0,0
1075,2,2022-09-30T20:57:07.391405,4191864,0,0,0,0,0,0,0,0,0
1076,2,2022-09-30T20:57:07.399217,4191873,0,0,0,0,0,0,0,0,0
1077,2,2022-09-30T20:57:07.405820,4191880,0,0,0,0,0,0,0,0,0
1078,2,2022-09-30T20:57:07.415665,4191889,0,0,0,0,0,0,0,0,0
1079,2,2022-09-30T20:57:07.423636,4191895,0,0,0,0,0,0,0,0,0
1080,2,2022-09-30T20:57:07.433477,4191906,0,0,0,0,0,0,0,0,0
1081,2,2022-09-30T20:57:07.438858,4191912,0,0,0,0,0,0,0,0,0
1082,2,2022-09-30T20:57:07.446418,4191919,0,0,0,0,0,0,0,0,0
1083,2,2022-09-30T20:57:07.458468,4191932,0,0,0,0,0,0,0,0,0
1084,2,2022-09-30T20:57:07.463781,4191938,0,0,0,0,0,0,0,0,0
1085,2,2022-09-30T20:57:07.476228,4191948,0,0,0,0,0,0,0,0,0
1086,2,2022-09-30T20:57:07.481226,4191955,0,0,0,0,0,0,0,0,0
1087,2,2022-09-30T20:57:07.489239,4191963,0,0,0,0,0,0,0,0,0
1088,2,2022-09-30T20:57:07.499083,4191970,0,0,0,0,0,0,0,0,0
1089,2,2022-09-30T20:57:07.505684,4191979,0,0,0,0,0,0,0,0,0
1090,2,2022-09-30T20:57:07.514667,4191988,0,0,0,0,0,0,0,0,0
1091,2,2022-09-30T20:57:07.522543,4191994,0,0,0,0,0,0,0,0,0
1092,2,2022-09-30T20:57:07.532447,4192007,0,0,0,0,0,0,0,0,0
1093,2,2022-09-30T20:57:07.537822,4192012,0,0,0,0,0,0,0,0,0
1094,2,2022-09-30T20:57:07.543682,4192018,0,0,0,0,0,0,0,0,0
1095,2,2022-09-30T20:57:07.555083,4192029,0,0,0,0,0,0,0,0,0
1096,2,2022-09-30T20:57:07.560591,4192034,0,0,0,0,0,0,0,0,0
1097,2,2022-09-30T20:57:07.568283,4192043,0,0,0,0,0,0,0,0,0
1098,2,2022-09-30T20:57:07.575563,4192049,0,0,0,0,0,0,0,0,0
1099,2,2022-09-30T20:57:07.582724,4192057,0,0,0,0,0,0,0,0,0
1100,2,2022-09-30T20:57:07.590648,4192065,0,0,0,0,0,0,0,0,0
1101,2,2022-09-30T20:57:07.596698,4192070,0,0,0,0,0,0,0,0,0
1102,2,2022-09-30T20:57:07.602539,4192076,0,0,0,0,0,0,0,0,0
1103,2,2022-09-30T20:57:07.612644,4192087,0,0,0,0,0,0,0,0,0
1104,2,2022-09-30T20:57:07.620113,4192093,0,0,0,0,0,0,0,0,0
1105,2,2022-09-30T20:57:07.627655,4192101,0,0,0,0,0,0,0,0,0
1106,2,2022-09-30T20:57:07.637794,4192112,0,0,0,0,0,0,0,0,0
1107,2,2022-09-30T20:57:07.644165,4192117,0,0,0,0,0,0,0,0,0
1108,2,2022-09-30T20:57:07.657845,4192131,0,0,0,0,0,0,0,0,0
1109,2,2022-09-30T20:57:07.664352,4192138,0,0,0,0,0,0,0,0,0
1110,2,2022-09-30T20:57:07.674432,4192147,0,0,0,0,0,0,0,0,0
1111,2,2022-09-30T20:57:07.681164,4192154,0,0,0,0,0,0,0,0,0
1112,2,2022-09-30T20:57:07.691096,4192164,0,0,0,0,0,0,0,0,0
1113,2,2022-09-30T20:57:07.699134,4192172,0,0,0,0,0,0,0,0,0
1114,2,2022-09-30T20:57:07.706081,4192180,0,0,0,0,0,0,0,0,0
1115,2,2022-09-30T20:57:07.715047,4192189,0,0,0,0,0,0,0,0,0
1116,2,2022-09-30T20:57:07.722643,4192195,0,0,0,0,0,0,0,0,0
1117,2,2022-09-30T20:57:07.734960,4192208,0,0,0,0,0,0,0,0,0
1118,2,2022-09-30T20:57:07.740975,4192215,0,0,0,0,0,0,0,0,0
1119,2,2022-09-30T20:57:07.753949,4192228,0,0,0,0,0,0,0,0,0
1120,2,2022-09-30T20:57:07.759876,4192234,0,0,0,0,0,0,0,0,0
1121,2,2022-09-30T20:57:07.766721,4192240,0,0,0,0,0,0,0,0,0
1122,2,2022-09-30T20:57:07.776871,4192250,0,0,0,0,0,0,0,0,0
1123,2,2022-09-30T20:57:07.782844,4192257,0,0,0,0,0,0,0,0,0
1124,2,2022-09-30T20:57:07.790770,4192265,0,0,0,0,0,0,0,0,0
1125,2,2022-09-30T20:57:07.797574,4192271,0,0,0,0,0,0,0,0,0
1126,2,2022-09-30T20:57:07.804272,4192278,0,0,0,0,0,0,0,0,0
1127,2,2022-09-30T20:57:07.812539,4192286,0,0,0,0,0,0,0,0,0
1128,2,2022-09-30T20:57:07.819160,4192292,0,0,0,0,0,0,0,0,0
1129,2,2022-09-30T20:57:07.827560,4192302,0,0,0,0,0,0,0,0,0
1130,2,2022-09-30T20:57:07.837613,4192311,0,0,0,0,0,0,0,0,0
1131,2,2022-09-30T20:57:07.843770,4192318,0,0,0,0,0,0,0,0,0
1132,2,2022-09-30T20:57:07.851622,4192326,0,0,0,0,0,0,0,0,0
1133,2,2022-09-30T20:57:07.856955,4192331,0,0,0,0,0,0,0,0,0
1134,2,2022-09-30T20:57:07.862339,4192336,0,0,0,0,0,0,0,0,0
1135,2,2022-09-30T20:57:07.870119,4192345,0,0,0,0,0,0,0,0,0
1136,2,2022-09-30T20:57:07.875263,4192350,0,0,0,0,0,0,0,0,0
1137,2,2022-09-30T20:57:07.880535,4192355,0,0,0,0,0,0,0,0,0
1138,2,2022-09-30T20:57:07.886753,4192360,0,0,0,0,0,0,0,0,0
1139,2,2022-09-30T20:57:07.894702,4192368,0,0,0,0,0,0,0,0,0
1140,2,2022-09-30T20:57:07.902042,4192376,0,0,0,0,0,0,0,0,0
1141,2,2022-09-30T20:57:07.910573,4192385,0,0,0,0,0,0,0,0,0
1142,2,2022-09-30T20:57:07.915713,4192390,0,0,0,0,0,0,0,0,0
1143,2,2022-09-30T20:57:07.921725,4192395,0,0,0,0,0,0,0,0,0
1144,2,2022-09-30T20:57:07.935181,4192409,0,0,0,0,0,0,0,0,0
1145,2,2022-09-30T20:57:07.940409,4192414,0,0,0,0,0,0,0,0,0
1146,2,2022-09-30T20:57:07.950369,4192424,0,0,0,0,0,0,0,0,0
1147,2,2022-09-30T20:57:07.959246,4192433,0,0,0,0,0,0,0,0,0
1148,2,2022-09-30T20:57:07.965094,4192439,0,0,0,0,0,0,0,0,0
1149,2,2022-09-30T20:57:07.974964,4192448,0,0,0,0,0,0,0,0,0
1150,2,2022-09-30T20:57:07.982188,4192456,0,0,0,0,0,0,0,0,0
1151,2,2022-09-30T20:57:07.990866,4192464,0,0,0,0,0,0,0,0,0
1152,2,2022-09-30T20:57:07.998085,4192471,0,0,0,0,0,0,0,0,0
1153,2,2022-09-30T20:57:08.006232,4192480,0,0,0,0,0,0,0,0,0
1154,2,2022-09-30T20:57:08.015343,4192489,0,0,0,0,0,0,0,0,0
1155,2,2022-09-30T20:57:08.022273,4192495,0,0,0,0,0,0,0,0,0
1156,2,2022-09-30T20:57:08.034686,4192508,0,0,0,0,0,0,0,0,0
1157,2,2022-09-30T20:57:08.040779,4192515,0,0,0,0,0,0,0,0,0
1158,2,2022-09-30T20:57:08.047355,4192521,0,0,0,0,0,0,0,0,0
1159,2,2022-09-30T20:57:08.057566,4192530,0,0,0,0,0,0,0,0,0
1160,2,2022-09-30T20:57:08.064465,4192538,0,0,0,0,0,0,0,0,0
1161,2,2022-09-30T20:57:08.076576,4192549,0,0,0,0,0,0,0,0,0
1162,2,2022-09-30T20:57:08.082579,4192557,0,0,0,0,0,0,0,0,0
1163,2,2022-09-30T20:57:08.091358,4192565,0,0,0,0,0,0,0,0,0
1164,2,2022-09-30T20:57:08.100143,4192572,0,0,0,0,0,0,0,0,0
1165,2,2022-09-30T20:57:08.105756,4192579,0,0,0,0,0,0,0,0,0
1166,2,2022-09-30T20:57:08.113256,4192587,0,0,0,0,0,0,0,0,0
1167,2,2022-09-30T20:57:08.120673,4192593,0,0,0,0,0,0,0,0,0
1168,2,2022-09-30T20:57:08.128493,4192603,0,0,0,0,0,0,0,0,0
1169,2,2022-09-30T20:57:08.135729,4192610,0,0,0,0,0,0,0,0,0
1170,2,2022-09-30T20:57:08.141471,4192616,0,0,0,0,0,0,0,0,0
1171,2,2022-09-30T20:57:08.151807,4192626,0,0,0,0,0,0,0,0,0
1172,2,2022-09-30T20:57:08.157298,4192631,0,0,0,0,0,0,0,0,0
1173,2,2022-09-30T20:57:08.162743,4192636,0,0,0,0,0,0,0,0,0
1174,2,2022-09-30T20:57:08.168859,4192643,0,0,0,0,0,0,0,0,0
1175,2,2022-09-30T20:57:08.175209,4192649,0,0,0,0,0,0,0,0,0
1176,2,2022-09-30T20:57:08.180640,4192655,0,0,0,0,0,0,0,0,0
1177,2,2022-09-30T20:57:08.188745,4192663,0,0,0,0,0,0,0,0,0
1178,2,2022-09-30T20:57:08.196466,4192669,0,0,0,0,0,0,0,0,0
1179,2,2022-09-30T20:57:08.203395,4192677,0,0,0,0,0,0,0,0,0
1180,2,2022-09-30T20:57:08.212188,4192686,0,0,0,0,0,0,0,0,0
1181,2,2022-09-30T20:57:08.218464,4192693,0,0,0,0,0,0,0,0,0
1182,2,2022-09-30T20:57:08.225394,4192699,0,0,0,0,0,0,0,0,0
1183,2,2022-09-30T20:57:08.232063,4192706,0,0,0,0,0,0,0,0,0
1184,2,2022-09-30T20:57:08.237771,4192712,0,0,0,0,0,0,0,0,0
1185,2,2022-09-30T20:57:08.243044,4192717,0,0,0,0,0,0,0,0,0
1186,2,2022-09-30T20:57:08.255772,4192730,0,0,0,0,0,0,0,0,0
1187,2,2022-09-30T20:57:08.261477,4192736,0,0,0,0,0,0,0,0,0
1188,2,2022-09-30T20:57:08.269294,4192743,0,0,0,0,0,0,0,0,0
1189,2,2022-09-30T20:57:08.277856,4192752,0,0,0,0,0,0,0,0,0
1190,2,2022-09-30T20:57:08.284156,4192758,0,0,0,0,0,0,0,0,0
1191,2,2022-09-30T20:57:08.292362,4192765,0,0,0,0,0,0,0,0,0
1192,2,2022-09-30T20:57:08.299868,4192773,0,0,0,0,0,0,0,0,0
1193,2,2022-09-30T20:57:08.306214,4192780,0,0,0,0,0,0,0,0,0
1194,2,2022-09-30T20:57:08.314078,4192787,0,0,0,0,0,0,0,0,0
1195,2,2022-09-30T20:57:08.320749,4192793,0,0,0,0,0,0,0,0,0
1196,2,2022-09-30T20:57:08.331206,4192804,0,0,0,0,0,0,0,0,0
1197,2,2022-09-30T20:57:08.339227,4192813,0,0,0,0,0,0,0,0,0
1198,2,2022-09-30T20:57:08.346690,4192819,0,0,0,0,0,0,0,0,0
1199,2,2022-09-30T20:57:08.357695,4192832,0,0,0,0,0,0,0,0,0
1200,2,2022-09-30T20:57:08.364443,4192837,0,0,0,0,0,0,0,0,0
1201,2,2022-09-30T20:57:08.375024,4192848,0,0,0,0,0,0,0,0,0
1202,2,2022-09-30T20:57:08.383720,4192858,0,0,0,0,0,0,0,0,0
1203,2,2022-09-30T20:57:08.393973,4192867,0,0,0,0,0,0,0,0,0
1204,2,2022-09-30T20:57:08.400750,4192875,0,0,0,0,0,0,0,0,0
1205,2,2022-09-30T20:57:08.410468,4192883,0,0,0,0,0,0,0,0,0
1206,2,2022-09-30T20:57:08.416286,4192890,0,0,0,0,0,0,0,0,0
1207,2,2022-09-30T20:57:08.422700,4192896,0,0,0,0,0,0,0,0,0
1208,2,2022-09-30T20:57:08.433333,4192908,0,0,0,0,0,0,0,0,0
1209,2,2022-09-30T20:57:08.440104,4192914,0,0,0,0,0,0,0,0,0
1210,2,2022-09-30T20:57:08.450857,4192925,0,0,0,0,0,0,0,0,0
1211,2,2022-09-30T20:57:08.457601,4192931,0,0,0,0,0,0,0,0,0
1212,2,2022-09-30T20:57:08.462862,4192936,0,0,0,0,0,0,0,0,0
1213,2,2022-09-30T20:57:08.470925,4192945,0,0,0,0,0,0,0,0,0
1214,2,2022-09-30T20:57:08.478377,4192952,0,0,0,0,0,0,0,0,0
1215,2,2022-09-30T20:57:08.483735,4192958,0,0,0,0,0,0,0,0,0
1216,2,2022-09-30T20:57:08.491234,4192965,0,0,0,0,0,0,0,0,0
1217,2,2022-09-30T20:57:08.497725,4192970,0,0,0,0,0,0,0,0,0
1218,2,2022-09-30T20:57:08.503856,4192978,0,0,0,0,0,0,0,0,0
1219,2,2022-09-30T20:57:08.513377,4192988,0,0,0,0,0,0,0,0,0
1220,2,2022-09-30T20:57:08.520320,4192994,0,0,0,0,0,0,0,0,0
1221,2,2022-09-30T20:57:08.530839,4193004,0,0,0,0,0,0,0,0,0
1222,2,2022-09-30T20:57:08.537453,4193011,0,0,0,0,0,0,0,0,0
1223,2,2022-09-30T20:57:08.542784,4193017,0,0,0,0,0,0,0,0,0
1224,2,2022-09-30T20:57:08.555656,4193030,0,0,0,0,0,0,0,0,0
1225,2,2022-09-30T20:57:08.560806,4193035,0,0,0,0,0,0,0,0,0
1226,2,2022-09-30T20:57:08.566781,4193041,0,0,0,0,0,0,0,0,0
1227,2,2022-09-30T20:57:08.574346,4193048,0,0,0,0,0,0,0,0,0
1228,2,2022-09-30T20:57:08.580650,4193054,0,0,0,0,0,0,0,0,0
1229,2,2022-09-30T20:57:08.588311,4193062,0,0,0,0,0,0,0,0,0
1230,2,2022-09-30T20:57:08.596179,4193069,0,0,0,0,0,0,0,0,0
1231,2,2022-09-30T20:57:08.603097,4193077,0,0,0,0,0,0,0,0,0
1232,2,2022-09-30T20:57:08.612541,4193087,0,0,0,0,0,0,0,0,0
1233,2,2022-09-30T20:57:08.617943,4193092,0,0,0,0,0,0,0,0,0
1234,2,2022-09-30T20:57:08.625984,4193099,0,0,0,0,0,0,0,0,0
1235,2,2022-09-30T20:57:08.635505,4193110,0,0,0,0,0,0,0,0,0
1236,2,2022-09-30T20:57:08.640892,4193115,0,0,0,0,0,0,0,0,0
1237,2,2022-09-30T20:57:08.650630,4193124,0,0,0,0,0,0,0,0,0
1238,2,2022-09-30T20:57:08.658505,4193132,0,0,0,0,0,0,0,0,0
1239,2,2022-09-30T20:57:08.663888,4193138,0,0,0,0,0,0,0,0,0
1240,2,2022-09-30T20:57:08.672300,4193145,0,0,0,0,0,0,0,0,0
1241,2,2022-09-30T20:57:08.680290,4193155,0,0,0,0,0,0,0,0,0
1242,2,2022-09-30T20:57:08.688141,4193163,0,0,0,0,0,0,0,0,0
1243,2,2022-09-30T20:57:08.695502,4193169,0,0,0,0,0,0,0,0,0
1244,2,2022-09-30T20:57:08.701730,4193176,0,0,0,0,0,0,0,0,0
1245,2,2022-09-30T20:57:08.711742,4193185,0,0,0,0,0,0,0,0,0
1246,2,2022-09-30T20:57:08.718447,4193191,0,0,0,0,0,0,0,0,0
1247,2,2022-09-30T20:57:08.727025,4193200,0,0,0,0,0,0,0,0,0
1248,2,2022-09-30T20:57:08.735082,4193209,0,0,0,0,0,0,0,0,0
1249,2,2022-09-30T20:57:08.741012,4193215,0,0,0,0,0,0,0,0,0
1250,2,2022-09-30T20:57:08.747926,4193220,0,0,0,0,0,0,0,0,0
1251,2,2022-09-30T20:57:08.756614,4193229,0,0,0,0,0,0,0,0,0
1252,2,2022-09-30T20:57:08.763179,4193236,0,0,0,0,0,0,0,0,0
1253,2,2022-09-30T20:57:08.772733,4193246,0,0,0,0,0,0,0,0,0
1254,2,2022-09-30T20:57:08.780311,4193254,0,0,0,0,0,0,0,0,0
1255,2,2022-09-30T20:57:08.788382,4193262,0,0,0,0,0,0,0,0,0
1256,2,2022-09-30T20:57:08.797203,4193270,0,0,0,0,0,0,0,0,0
1257,2,2022-09-30T20:57:08.804509,4193277,0,0,0,0,0,0,0,0,0
1258,2,2022-09-30T20:57:08.815166,4193289,0,0,0,0,0,0,0,0,0
1259,2,2022-09-30T20:57:08.821006,4193295,0,0,0,0,0,0,0,0,0
1260,2,2022-09-30T20:57:08.828015,4193302,0,0,0,0,0,0,0,0,0
1261,2,2022-09-30T20:57:08.835223,4193309,0,0,0,0,0,0,0,0,0
1262,2,2022-09-30T20:57:08.841286,4193315,0,0,0,0,0,0,0,0,0
1263,2,2022-09-30T20:57:08.847339,4193320,0,0,0,0,0,0,0,0,0
1264,2,2022-09-30T20:57:08.854744,4193328,0,0,0,0,0,0,0,0,0
1265,2,2022-09-30T20:57:08.860264,4193334,0,0,0,0,0,0,0,0,0
1266,2,2022-09-30T20:57:08.871902,4193345,0,0,0,0,0,0,0,0,0
1267,2,2022-09-30T20:57:08.880646,4193354,0,0,0,0,0,0,0,0,0
1268,2,2022-09-30T20:57:08.888577,4193362,0,0,0,0,0,0,0,0,0
1269,2,2022-09-30T20:57:08.896463,4193369,0,0,0,0,0,0,0,0,0
1270,2,2022-09-30T20:57:08.903052,4193377,0,0,0,0,0,0,0,0,0
1271,2,2022-09-30T20:57:08.912033,4193386,0,0,0,0,0,0,0,0,0
1272,2,2022-09-30T20:57:08.917187,4193391,0,0,0,0,0,0,0,0,0
1273,2,2022-09-30T20:57:08.925389,4193397,0,0,0,0,0,0,0,0,0
1274,2,2022-09-30T20:57:08.934386,4193409,0,0,0,0,0,0,0,0,0
1275,2,2022-09-30T20:57:08.938942,4193414,0,0,0,0,0,0,0,0,0
1276,2,2022-09-30T20:57:08.945395,4193419,0,0,0,0,0,0,0,0,0
1277,2,2022-09-30T20:57:08.957328,4193431,0,0,0,0,0,0,0,0,0
1278,2,2022-09-30T20:57:08.963388,4193437,0,0,0,0,0,0,0,0,0
1279,2,2022-09-30T20:57:08.972817,4193445,0,0,0,0,0,0,0,0,0
1280,2,2022-09-30T20:57:08.978434,4193453,0,0,0,0,0,0,0,0,0
1281,2,2022-09-30T20:57:08.984157,4193458,0,0,0,0,0,0,0,0,0
1282,2,2022-09-30T20:57:08.993067,4193467,0,0,0,0,0,0,0,0,0
1283,2,2022-09-30T20:57:09.001567,4193475,0,0,0,0,0,0,0,0,0
1284,2,2022-09-30T20:57:09.010207,4193484,0,0,0,0,0,0,0,0,0
1285,2,2022-09-30T20:57:09.015279,4193489,0,0,0,0,0,0,0,0,0
1286,2,2022-09-30T20:57:09.022219,4193496,0,0,0,0,0,0,0,0,0
1287,2,2022-09-30T20:57:09.030628,4193505,0,0,0,0,0,0,0,0,0
1288,2,2022-09-30T20:57:09.038545,4193513,0,0,0,0,0,0,0,0,0
1289,2,2022-09-30T20:57:09.044485,4193518,0,0,0,0,0,0,0,0,0
1290,2,2022-09-30T20:57:09.050805,4193524,0,0,0,0,0,0,0,0,0
1291,2,2022-09-30T20:57:09.057550,4193531,0,0,0,0,0,0,0,0,0
1292,2,2022-09-30T20:57:09.062742,4193537,0,0,0,0,0,0,0,0,0
1293,2,2022-09-30T20:57:09.072095,4193545,0,0,0,0,0,0,0,0,0
1294,2,2022-09-30T20:57:09.078735,4193553,0,0,0,0,0,0,0,0,0
1295,2,2022-09-30T20:57:09.085048,4193559,0,0,0,0,0,0,0,0,0
1296,2,2022-09-30T20:57:09.093770,4193567,0,0,0,0,0,0,0,0,0
1297,2,2022-09-30T20:57:09.099076,4193573,0,0,0,0,0,0,0,0,0
1298,2,2022-09-30T20:57:09.104357,4193579,0,0,0,0,0,0,0,0,0
1299,2,2022-09-30T20:57:09.111809,4193587,0,0,0,0,0,0,0,0,0
1300,2,2022-09-30T20:57:09.116715,4193591,0,0,0,0,0,0,0,0,0
1301,2,2022-09-30T20:57:09.121917,4193596,0,0,0,0,0,0,0,0,0
1302,2,2022-09-30T20:57:09.132395,4193605,0,0,0,0,0,0,0,0,0
1303,2,2022-09-30T20:57:09.138924,4193612,0,0,0,0,0,0,0,0,0
1304,2,2022-09-30T20:57:09.144912,4193618,0,0,0,0,0,0,0,0,0
1305,2,2022-09-30T20:57:09.155390,4193630,0,0,0,0,0,0,0,0,0
1306,2,2022-09-30T20:57:09.160954,4193635,0,0,0,0,0,0,0,0,0
1307,2,2022-09-30T20:57:09.168072,4193642,0,0,0,0,0,0,0,0,0
1308,2,2022-09-30T20:57:09.176351,4193650,0,0,0,0,0,0,0,0,0
1309,2,2022-09-30T20:57:09.182534,4193656,0,0,0,0,0,0,0,0,0
1310,2,2022-09-30T20:57:09.191088,4193666,0,0,0,0,0,0,0,0,0
1311,2,2022-09-30T20:57:09.197054,4193671,0,0,0,0,0,0,0,0,0
1312,2,2022-09-30T20:57:09.204877,4193678,0,0,0,0,0,0,0,0,0
1313,2,2022-09-30T20:57:09.213943,4193688,0,0,0,0,0,0,0,0,0
1314,2,2022-09-30T20:57:09.222021,4193693,0,0,0,0,0,0,0,0,0
1315,2,2022-09-30T20:57:09.229725,4193702,0,0,0,0,0,0,0,0,0
1316,2,2022-09-30T20:57:09.238155,4193712,0,0,0,0,0,0,0,0,0
1317,2,2022-09-30T20:57:09.244967,4193718,0,0,0,0,0,0,0,0,0
1318,2,2022-09-30T20:57:09.256209,4193729,0,0,0,0,0,0,0,0,0
1319,2,2022-09-30T20:57:09.262336,4193736,0,0,0,0,0,0,0,0,0
1320,2,2022-09-30T20:57:09.269218,4193742,0,0,0,0,0,0,0,0,0
1321,2,2022-09-30T20:57:09.282719,4193756,0,0,0,0,0,0,0,0,0
1322,2,2022-09-30T20:57:09.290300,4193764,0,0,0,0,0,0,0,0,0
1323,2,2022-09-30T20:57:09.301129,4193775,0,0,0,0,0,0,0,0,0
1324,2,2022-09-30T20:57:09.307733,4193781,0,0,0,0,0,0,0,0,0
1325,2,2022-09-30T20:57:09.314591,4193788,0,0,0,0,0,0,0,0,0
1326,2,2022-09-30T20:57:09.320558,4193795,0,0,0,0,0,0,0,0,0
1327,2,2022-09-30T20:57:09.330091,4193804,0,0,0,0,0,0,0,0,0
1328,2,2022-09-30T20:57:09.336774,4193811,0,0,0,0,0,0,0,0,0
1329,2,2022-09-30T20:57:09.342100,4193816,0,0,0,0,0,0,0,0,0
1330,2,2022-09-30T20:57:09.350066,4193823,0,0,0,0,0,0,0,0,0
1331,2,2022-09-30T20:57:09.357320,4193831,0,0,0,0,0,0,0,0,0
1332,2,2022-09-30T20:57:09.362915,4193837,0,0,0,0,0,0,0,0,0
1333,2,2022-09-30T20:57:09.372477,4193845,0,0,0,0,0,0,0,0,0
1334,2,2022-09-30T20:57:09.380326,4193854,0,0,0,0,0,0,0,0,0
1335,2,2022-09-30T20:57:09.387917,4193862,0,0,0,0,0,0,0,0,0
1336,2,2022-09-30T20:57:09.394817,4193868,0,0,0,0,0,0,0,0,0
1337,2,2022-09-30T20:57:09.402069,4193876,0,0,0,0,0,0,0,0,0
1338,2,2022-09-30T20:57:09.410586,4193885,0,0,0,0,0,0,0,0,0
1339,2,2022-09-30T20:57:09.416903,4193891,0,0,0,0,0,0,0,0,0
1340,2,2022-09-30T20:57:09.423426,4193896,0,0,0,0,0,0,0,0,0
1341,2,2022-09-30T20:57:09.433437,4193906,0,0,0,0,0,0,0,0,0
1342,2,2022-09-30T20:57:09.440638,4193914,0,0,0,0,0,0,0,0,0
1343,2,2022-09-30T20:57:09.448031,4193922,0,0,0,0,0,0,0,0,0
1344,2,2022-09-30T20:57:09.456835,4193931,0,0,0,0,0,0,0,0,0
1345,2,2022-09-30T20:57:09.462264,4193937,0,0,0,0,0,0,0,0,0
1346,2,2022-09-30T20:57:09.468886,4193943,0,0,0,0,0,0,0,0,0
1347,2,2022-09-30T20:57:09.480221,4193952,0,0,0,0,0,0,0,0,0
1348,2,2022-09-30T20:57:09.485812,4193960,0,0,0,0,0,0,0,0,0
1349,2,2022-09-30T20:57:09.493036,4193968,0,0,0,0,0,0,0,0,0
1350,2,2022-09-30T20:57:09.499284,4193973,0,0,0,0,0,0,0,0,0
1351,2,2022-09-30T20:57:09.507773,4193982,0,0,0,0,0,0,0,0,0
1352,2,2022-09-30T20:57:09.515430,4193990,0,0,0,0,0,0,0,0,0
1353,2,2022-09-30T20:57:09.521273,4193995,0,0,0,0,0,0,0,0,0
1354,2,2022-09-30T20:57:09.531113,4194006,0,0,0,0,0,0,0,0,0
1355,2,2022-09-30T20:57:09.540525,4194014,0,0,0,0,0,0,0,0,0
1356,2,2022-09-30T20:57:09.551027,4194025,0,0,0,0,0,0,0,0,0
1357,2,2022-09-30T20:57:09.560512,4194034,0,0,0,0,0,0,0,0,0
1358,2,2022-09-30T20:57:09.566628,4194040,0,0,0,0,0,0,0,0,0
1359,2,2022-09-30T20:57:09.579089,4194053,0,0,0,0,0,0,0,0,0
1360,2,2022-09-30T20:57:09.585066,4194059,0,0,0,0,0,0,0,0,0
1361,2,2022-09-30T20:57:09.594563,4194067,0,0,0,0,0,0,0,0,0
1362,2,2022-09-30T20:57:09.605515,4194079,0,0,0,0,0,0,0,0,0
1363,2,2022-09-30T20:57:09.616555,4194089,0,0,0,0,0,0,0,0,0
1364,2,2022-09-30T20:57:09.623149,4194097,0,0,0,0,0,0,0,0,0
1365,2,2022-09-30T20:57:09.630145,4194104,0,0,0,0,0,0,0,0,0
1366,2,2022-09-30T20:57:09.637722,4194111,0,0,0,0,0,0,0,0,0
1367,2,2022-09-30T20:57:09.643916,4194117,0,0,0,0,0,0,0,0,0
1368,2,2022-09-30T20:57:09.659123,4194131,0,0,0,0,0,0,0,0,0
1369,2,2022-09-30T20:57:09.665200,4194139,0,0,0,0,0,0,0,0,0
1370,2,2022-09-30T20:57:09.673081,4194145,0,0,0,0,0,0,0,0,0
1371,2,2022-09-30T20:57:09.680760,4194154,0,0,0,0,0,0,0,0,0
1372,2,2022-09-30T20:57:09.689319,4194163,0,0,0,0,0,0,0,0,0
1373,2,2022-09-30T20:57:09.698914,4194171,0,0,0,0,0,0,0,0,0
1374,2,2022-09-30T20:57:09.706095,4194180,0,0,0,0,0,0,0,0,0
1375,2,2022-09-30T20:57:09.715561,4194190,0,0,0,0,0,0,0,0,0
1376,2,2022-09-30T20:57:09.721568,4194195,0,0,0,0,0,0,0,0,0
1377,2,2022-09-30T20:57:09.731761,4194206,0,0,0,0,0,0,0,0,0
1378,2,2022-09-30T20:57:09.738121,4194212,0,0,0,0,0,0,0,0,0
1379,2,2022-09-30T20:57:09.744019,4194217,0,0,0,0,0,0,0,0,0
1380,2,2022-09-30T20:57:09.755970,4194230,0,0,0,0,0,0,0,0,0
1381,2,2022-09-30T20:57:09.762441,4194236,0,0,0,0,0,0,0,0,0
1382,2,2022-09-30T20:57:09.769617,4194243,0,0,0,0,0,0,0,0,0
1383,2,2022-09-30T20:57:09.780013,4194254,0,0,0,0,0,0,0,0,0
1384,2,2022-09-30T20:57:09.787928,4194263,0,0,0,0,0,0,0,0,0
1385,2,2022-09-30T20:57:09.794632,4194269,0,0,0,0,0,0,0,0,0
1386,2,2022-09-30T20:57:09.803759,4194277,0,0,0,0,0,0,0,0,0
1387,2,2022-09-30T20:57:09.812967,4194287,0,0,0,0,0,0,0,0,0
1388,2,2022-09-30T20:57:09.819479,4194293,0,0,0,0,0,0,0,0,0
1389,2,2022-09-30T20:57:09.827322,4194301,0,0,0,0,0,0,0,0,0
1390,2,2022-09-30T20:57:09.837121,4194312,0,0,0,0,0,0,0,0,0
1391,2,2022-09-30T20:57:09.842791,4194317,0,0,0,0,0,0,0,0,0
1392,2,2022-09-30T20:57:09.852510,4194326,0,0,0,0,0,0,0,0,0
1393,2,2022-09-30T20:57:09.861609,4194335,0,0,0,0,0,0,0,0,0
1394,2,2022-09-30T20:57:09.871930,4194344,0,0,0,0,0,0,0,0,0
1395,2,2022-09-30T20:57:09.879270,4194354,0,0,0,0,0,0,0,0,0
1396,2,2022-09-30T20:57:09.885095,4194359,0,0,0,0,0,0,0,0,0
1397,2,2022-09-30T20:57:09.894126,4194368,0,0,0,0,0,0,0,0,0
1398,2,2022-09-30T20:57:09.903316,4194376,0,0,0,0,0,0,0,0,0
1399,2,2022-09-30T20:57:09.912313,4194385,0,0,0,0,0,0,0,0,0
1400,2,2022-09-30T20:57:09.921561,4194394,0,0,0,0,0,0,0,0,0
1401,2,2022-09-30T20:57:09.929149,4194403,0,0,0,0,0,0,0,0,0
1402,2,2022-09-30T20:57:09.939707,4194414,0,0,0,0,0,0,0,0,0
1403,2,2022-09-30T20:57:09.947165,4194420,0,0,0,0,0,0,0,0,0
1404,2,2022-09-30T20:57:09.959893,4194434,0,0,0,0,0,0,0,0,0
1405,2,2022-09-30T20:57:09.965653,4194440,0,0,0,0,0,0,0,0,0
1406,2,2022-09-30T20:57:09.976014,4194449,0,0,0,0,0,0,0,0,0
1407,2,2022-09-30T20:57:09.982467,4194456,0,0,0,0,0,0,0,0,0
1408,2,2022-09-30T20:57:09.990894,4194465,0,0,0,0,0,0,0,0,0
1409,2,2022-09-30T20:57:10.000001,4194473,0,0,0,0,0,0,0,0,0
1410,2,2022-09-30T20:57:10.005966,4194480,0,0,0,0,0,0,0,0,0
1411,2,2022-09-30T20:57:10.015501,4194490,0,0,0,0,0,0,0,0,0
1412,2,2022-09-30T20:57:10.022909,4194496,0,0,0,0,0,0,0,0,0
1413,2,2022-09-30T20:57:10.030591,4194504,0,0,0,0,0,0,0,0,0
1414,2,2022-09-30T20:57:10.038948,4194513,0,0,0,0,0,0,0,0,0
1415,2,2022-09-30T20:57:10.044615,4194519,0,0,0,0,0,0,0,0,0
1416,2,2022-09-30T20:57:10.056516,4194531,0,0,0,0,0,0,0,0,0
1417,2,2022-09-30T20:57:10.063214,4194537,0,0,0,0,0,0,0,0,0
1418,2,2022-09-30T20:57:10.070918,4194544,0,0,0,0,0,0,0,0,0
1419,2,2022-09-30T20:57:10.076859,4194550,0,0,0,0,0,0,0,0,0
1420,2,2022-09-30T20:57:10.082673,4194556,0,0,0,0,0,0,0,0,0
1421,2,2022-09-30T20:57:10.088889,4194563,0,0,0,0,0,0,0,0,0
1422,2,2022-09-30T20:57:10.096226,4194570,0,0,0,0,0,0,0,0,0
1423,2,2022-09-30T20:57:10.102384,4194576,0,0,0,0,0,0,0,0,0
1424,2,2022-09-30T20:57:10.109690,4194584,0,0,0,0,0,0,0,0,0
1425,2,2022-09-30T20:57:10.117776,4194591,0,0,0,0,0,0,0,0,0
1426,2,2022-09-30T20:57:10.124435,4194598,0,0,0,0,0,0,0,0,0
1427,2,2022-09-30T20:57:10.132977,4194608,0,0,0,0,0,0,0,0,0
1428,2,2022-09-30T20:57:10.138719,4194613,0,0,0,0,0,0,0,0,0
1429,2,2022-09-30T20:57:10.144731,4194618,0,0,0,0,0,0,0,0,0
1430,2,2022-09-30T20:57:10.157900,4194631,0,0,0,0,0,0,0,0,0
1431,2,2022-09-30T20:57:10.163630,4194638,0,0,0,0,0,0,0,0,0
1432,2,2022-09-30T20:57:10.173408,4194647,0,0,0,0,0,0,0,0,0
1433,2,2022-09-30T20:57:10.180493,4194655,0,0,0,0,0,0,0,0,0
1434,2,2022-09-30T20:57:10.188795,4194663,0,0,0,0,0,0,0,0,0
1435,2,2022-09-30T20:57:10.196032,4194669,0,0,0,0,0,0,0,0,0
1436,2,2022-09-30T20:57:10.203177,4194677,0,0,0,0,0,0,0,0,0
1437,2,2022-09-30T20:57:10.212571,4194686,0,0,0,0,0,0,0,0,0
1438,2,2022-09-30T20:57:10.221194,4194695,0,0,0,0,0,0,0,0,0
1439,2,2022-09-30T20:57:10.228441,4194703,0,0,0,0,0,0,0,0,0
1440,2,2022-09-30T20:57:10.233200,4194708,0,0,0,0,0,0,0,0,0
1441,2,2022-09-30T20:57:10.238595,4194713,0,0,0,0,0,0,0,0,0
1442,2,2022-09-30T20:57:10.244179,4194718,0,0,0,0,0,0,0,0,0
1443,2,2022-09-30T20:57:10.254923,4194729,0,0,0,0,0,0,0,0,0
1444,2,2022-09-30T20:57:10.261235,4194735,0,0,0,0,0,0,0,0,0
1445,2,2022-09-30T20:57:10.270994,4194744,0,0,0,0,0,0,0,0,0
1446,2,2022-09-30T20:57:10.277030,4194751,0,0,0,0,0,0,0,0,0
1447,2,2022-09-30T20:57:10.283160,4194757,0,0,0,0,0,0,0,0,0
1448,2,2022-09-30T20:57:10.288635,4194763,0,0,0,0,0,0,0,0,0
1449,2,2022-09-30T20:57:10.295297,4194769,0,0,0,0,0,0,0,0,0
1450,2,2022-09-30T20:57:10.301483,4194776,0,0,0,0,0,0,0,0,0
1451,2,2022-09-30T20:57:10.307208,4194781,0,0,0,0,0,0,0,0,0
1452,2,2022-09-30T20:57:10.313699,4194788,0,0,0,0,0,0,0,0,0
1453,2,2022-09-30T20:57:10.319318,4194793,0,0,0,0,0,0,0,0,0
1454,2,2022-09-30T20:57:10.326676,4194800,0,0,0,0,0,0,0,0,0
1455,2,2022-09-30T20:57:10.336066,4194810,0,0,0,0,0,0,0,0,0
1456,2,2022-09-30T20:57:10.341155,4194816,0,0,0,0,0,0,0,0,0
1457,2,2022-09-30T20:57:10.348313,4194822,0,0,0,0,0,0,0,0,0
1458,2,2022-09-30T20:57:10.357407,4194832,0,0,0,0,0,0,0,0,0
1459,2,2022-09-30T20:57:10.362768,4194837,0,0,0,0,0,0,0,0,0
1460,2,2022-09-30T20:57:10.368500,4194842,0,0,0,0,0,0,0,0,0
1461,2,2022-09-30T20:57:10.377987,4194852,0,0,0,0,0,0,0,0,0
1462,2,2022-09-30T20:57:10.386121,4194861,0,0,0,0,0,0,0,0,0
1463,2,2022-09-30T20:57:10.393341,4194868,0,0,0,0,0,0,0,0,0
1464,2,2022-09-30T20:57:10.399448,4194873,0,0,0,0,0,0,0,0,0
1465,2,2022-09-30T20:57:10.405458,4194880,0,0,0,0,0,0,0,0,0
1466,2,2022-09-30T20:57:10.414031,4194888,0,0,0,0,0,0,0,0,0
1467,2,2022-09-30T20:57:10.420876,4194894,0,0,0,0,0,0,0,0,0
1468,2,2022-09-30T20:57:10.430296,4194904,0,0,0,0,0,0,0,0,0
1469,2,2022-09-30T20:57:10.441355,4194916,0,0,0,0,0,0,0,0,0
1470,2,2022-09-30T20:57:10.450899,4194924,0,0,0,0,0,0,0,0,0
1471,2,2022-09-30T20:57:10.458588,4194932,0,0,0,0,0,0,0,0,0
1472,2,2022-09-30T20:57:10.464303,4194938,0,0,0,0,0,0,0,0,0
1473,2,2022-09-30T20:57:10.475833,4194950,0,0,0,0,0,0,0,0,0
1474,2,2022-09-30T20:57:10.483196,4194957,0,0,0,0,0,0,0,0,0
1475,2,2022-09-30T20:57:10.491671,4194966,0,0,0,0,0,0,0,0,0
1476,2,2022-09-30T20:57:10.502596,4194976,0,0,0,0,0,0,0,0,0
1477,2,2022-09-30T20:57:10.509647,4194983,0,0,0,0,0,0,0,0,0
1478,2,2022-09-30T20:57:10.517540,4194991,0,0,0,0,0,0,0,0,0
1479,2,2022-09-30T20:57:10.528397,4195001,0,0,0,0,0,0,0,0,0
1480,2,2022-09-30T20:57:10.538299,4195012,0,0,0,0,0,0,0,0,0
1481,2,2022-09-30T20:57:10.544644,4195018,0,0,0,0,0,0,0,0,0
1482,2,2022-09-30T20:57:10.554993,4195028,0,0,0,0,0,0,0,0,0
1483,2,2022-09-30T20:57:10.561806,4195036,0,0,0,0,0,0,0,0,0
1484,2,2022-09-30T20:57:10.568152,4195042,0,0,0,0,0,0,0,0,0
1485,2,2022-09-30T20:57:10.578702,4195053,0,0,0,0,0,0,0,0,0
1486,2,2022-09-30T20:57:10.584325,4195058,0,0,0,0,0,0,0,0,0
1487,2,2022-09-30T20:57:10.594647,4195068,0,0,0,0,0,0,0,0,0
1488,2,2022-09-30T20:57:10.601331,4195075,0,0,0,0,0,0,0,0,0
1489,2,2022-09-30T20:57:10.607133,4195081,0,0,0,0,0,0,0,0,0
1490,2,2022-09-30T20:57:10.615411,4195090,0,0,0,0,0,0,0,0,0
1491,2,2022-09-30T20:57:10.621413,4195095,0,0,0,0,0,0,0,0,0
1492,2,2022-09-30T20:57:10.630441,4195104,0,0,0,0,0,0,0,0,0
1493,2,2022-09-30T20:57:10.637211,4195111,0,0,0,0,0,0,0,0,0
1494,2,2022-09-30T20:57:10.642201,4195117,0,0,0,0,0,0,0,0,0
1495,2,2022-09-30T20:57:10.650363,4195124,0,0,0,0,0,0,0,0,0
1496,2,2022-09-30T20:57:10.658110,4195132,0,0,0,0,0,0,0,0,0
1497,2,2022-09-30T20:57:10.664024,4195138,0,0,0,0,0,0,0,0,0
1498,2,2022-09-30T20:57:10.671746,4195145,0,0,0,0,0,0,0,0,0
1499,2,2022-09-30T20:57:10.677771,4195152,0,0,0,0,0,0,0,0,0
1500,2,2022-09-30T20:57:10.687076,4195161,0,0,0,0,0,0,0,0,0
1501,2,2022-09-30T20:57:10.695644,4195170,0,0,0,0,0,0,0,0,0
1502,2,2022-09-30T20:57:10.702796,4195177,0,0,0,0,0,0,0,0,0
1503,2,2022-09-30T20:57:10.711984,4195185,0,0,0,0,0,0,0,0,0
1504,2,2022-09-30T20:57:10.718423,4195193,0,0,0,0,0,0,0,0,0
1505,2,2022-09-30T20:57:10.724418,4195198,0,0,0,0,0,0,0,0,0
1506,2,2022-09-30T20:57:10.734287,4195209,0,0,0,0,0,0,0,0,0
1507,2,2022-09-30T20:57:10.739578,4195214,0,0,0,0,0,0,0,0,0
1508,2,2022-09-30T20:57:10.746012,4195219,0,0,0,0,0,0,0,0,0
1509,2,2022-09-30T20:57:10.756344,4195230,0,0,0,0,0,0,0,0,0
1510,2,2022-09-30T20:57:10.763176,4195236,0,0,0,0,0,0,0,0,0
1511,2,2022-09-30T20:57:10.772582,4195246,0,0,0,0,0,0,0,0,0
1512,2,2022-09-30T20:57:10.780874,4195255,0,0,0,0,0,0,0,0,0
1513,2,2022-09-30T20:57:10.790150,4195264,0,0,0,0,0,0,0,0,0
1514,2,2022-09-30T20:57:10.798604,4195271,0,0,0,0,0,0,0,0,0
1515,2,2022-09-30T20:57:10.808738,4195282,0,0,0,0,0,0,0,0,0
1516,2,2022-09-30T20:57:10.818434,4195292,0,0,0,0,0,0,0,0,0
1517,2,2022-09-30T20:57:10.826043,4195300,0,0,0,0,0,0,0,0,0
1518,2,2022-09-30T20:57:10.831985,4195306,0,0,0,0,0,0,0,0,0
1519,2,2022-09-30T20:57:10.838525,4195312,0,0,0,0,0,0,0,0,0
1520,2,2022-09-30T20:57:10.844957,4195318,0,0,0,0,0,0,0,0,0
1521,2,2022-09-30T20:57:10.855443,4195330,0,0,0,0,0,0,0,0,0
1522,2,2022-09-30T20:57:10.860844,4195335,0,0,0,0,0,0,0,0,0
1523,2,2022-09-30T20:57:10.869915,4195344,0,0,0,0,0,0,0,0,0
1524,2,2022-09-30T20:57:10.878787,4195353,0,0,0,0,0,0,0,0,0
1525,2,2022-09-30T20:57:10.884389,4195358,0,0,0,0,0,0,0,0,0
1526,2,2022-09-30T20:57:10.896134,4195368,0,0,0,0,0,0,0,0,0
1527,2,2022-09-30T20:57:10.903610,4195377,0,0,0,0,0,0,0,0,0
1528,2,2022-09-30T20:57:10.914040,4195387,0,0,0,0,0,0,0,0,0
1529,2,2022-09-30T20:57:10.922629,4195397,0,0,0,0,0,0,0,0,0
1530,2,2022-09-30T20:57:10.929749,4195404,0,0,0,0,0,0,0,0,0
1531,2,2022-09-30T20:57:10.936208,4195410,0,0,0,0,0,0,0,0,0
1532,2,2022-09-30T20:57:10.941404,4195416,0,0,0,0,0,0,0,0,0
1533,2,2022-09-30T20:57:10.948733,4195422,0,0,0,0,0,0,0,0,0
1534,2,2022-09-30T20:57:10.958187,4195432,0,0,0,0,0,0,0,0,0
1535,2,2022-09-30T20:57:10.963861,4195438,0,0,0,0,0,0,0,0,0
1536,2,2022-09-30T20:57:10.971893,4195445,0,0,0,0,0,0,0,0,0
1537,2,2022-09-30T20:57:10.981787,4195456,0,0,0,0,0,0,0,0,0
1538,2,2022-09-30T20:57:10.991587,4195466,0,0,0,0,0,0,0,0,0
1539,2,2022-09-30T20:57:10.999652,4195473,0,0,0,0,0,0,0,0,0
1540,2,2022-09-30T20:57:11.006224,4195480,0,0,0,0,0,0,0,0,0
1541,2,2022-09-30T20:57:11.016398,4195490,0,0,0,0,0,0,0,0,0
1542,2,2022-09-30T20:57:11.022757,4195496,0,0,0,0,0,0,0,0,0
1543,2,2022-09-30T20:57:11.030872,4195505,0,0,0,0,0,0,0,0,0
1544,2,2022-09-30T20:57:11.039098,4195514,0,0,0,0,0,0,0,0,0
1545,2,2022-09-30T20:57:11.044903,4195519,0,0,0,0,0,0,0,0,0
1546,2,2022-09-30T20:57:11.057521,4195531,0,0,0,0,0,0,0,0,0
1547,2,2022-09-30T20:57:11.063101,4195537,0,0,0,0,0,0,0,0,0
1548,2,2022-09-30T20:57:11.069955,4195544,0,0,0,0,0,0,0,0,0
1549,2,2022-09-30T20:57:11.080662,4195555,0,0,0,0,0,0,0,0,0
1550,2,2022-09-30T20:57:11.087614,4195562,0,0,0,0,0,0,0,0,0
1551,2,2022-09-30T20:57:11.093913,4195568,0,0,0,0,0,0,0,0,0
1552,2,2022-09-30T20:57:11.101233,4195574,0,0,0,0,0,0,0,0,0
1553,2,2022-09-30T20:57:11.109147,4195582,0,0,0,0,0,0,0,0,0
1554,2,2022-09-30T20:57:11.116114,4195591,0,0,0,0,0,0,0,0,0
1555,2,2022-09-30T20:57:11.122309,4195596,0,0,0,0,0,0,0,0,0
1556,2,2022-09-30T20:57:11.133665,4195607,0,0,0,0,0,0,0,0,0
1557,2,2022-09-30T20:57:11.141453,4195615,0,0,0,0,0,0,0,0,0
1558,2,2022-09-30T20:57:11.152025,4195624,0,0,0,0,0,0,0,0,0
1559,2,2022-09-30T20:57:11.160767,4195635,0,0,0,0,0,0,0,0,0
1560,2,2022-09-30T20:57:11.166883,4195641,0,0,0,0,0,0,0,0,0
1561,2,2022-09-30T20:57:11.178071,4195652,0,0,0,0,0,0,0,0,0
1562,2,2022-09-30T20:57:11.185234,4195658,0,0,0,0,0,0,0,0,0
1563,2,2022-09-30T20:57:11.192481,4195666,0,0,0,0,0,0,0,0,0
1564,2,2022-09-30T20:57:11.202968,4195677,0,0,0,0,0,0,0,0,0
1565,2,2022-09-30T20:57:11.211986,4195685,0,0,0,0,0,0,0,0,0
1566,2,2022-09-30T20:57:11.221553,4195695,0,0,0,0,0,0,0,0,0
1567,2,2022-09-30T20:57:11.229507,4195703,0,0,0,0,0,0,0,0,0
1568,2,2022-09-30T20:57:11.236368,4195710,0,0,0,0,0,0,0,0,0
1569,2,2022-09-30T20:57:11.242482,4195716,0,0,0,0,0,0,0,0,0
1570,2,2022-09-30T20:57:11.251041,4195725,0,0,0,0,0,0,0,0,0
1571,2,2022-09-30T20:57:11.259552,4195733,0,0,0,0,0,0,0,0,0
1572,2,2022-09-30T20:57:11.265044,4195739,0,0,0,0,0,0,0,0,0
1573,2,2022-09-30T20:57:11.273384,4195746,0,0,0,0,0,0,0,0,0
1574,2,2022-09-30T20:57:11.279263,4195753,0,0,0,0,0,0,0,0,0
1575,2,2022-09-30T20:57:11.285217,4195760,0,0,0,0,0,0,0,0,0
1576,2,2022-09-30T20:57:11.293233,4195767,0,0,0,0,0,0,0,0,0
1577,2,2022-09-30T20:57:11.299816,4195774,0,0,0,0,0,0,0,0,0
1578,2,2022-09-30T20:57:11.305606,4195780,0,0,0,0,0,0,0,0,0
1579,2,2022-09-30T20:57:11.315120,4195789,0,0,0,0,0,0,0,0,0
1580,2,2022-09-30T20:57:11.321905,4195794,0,0,0,0,0,0,0,0,0
1581,2,2022-09-30T20:57:11.330252,4195805,0,0,0,0,0,0,0,0,0
1582,2,2022-09-30T20:57:11.338161,4195813,0,0,0,0,0,0,0,0,0
1583,2,2022-09-30T20:57:11.343171,4195818,0,0,0,0,0,0,0,0,0
1584,2,2022-09-30T20:57:11.352443,4195826,0,0,0,0,0,0,0,0,0
1585,2,2022-09-30T20:57:11.361256,4195835,0,0,0,0,0,0,0,0,0
1586,2,2022-09-30T20:57:11.368479,4195843,0,0,0,0,0,0,0,0,0
1587,2,2022-09-30T20:57:11.377359,4195852,0,0,0,0,0,0,0,0,0
1588,2,2022-09-30T20:57:11.385519,4195860,0,0,0,0,0,0,0,0,0
1589,2,2022-09-30T20:57:11.392899,4195867,0,0,0,0,0,0,0,0,0
1590,2,2022-09-30T20:57:11.399019,4195872,0,0,0,0,0,0,0,0,0
1591,2,2022-09-30T20:57:11.408264,4195883,0,0,0,0,0,0,0,0,0
1592,2,2022-09-30T20:57:11.415612,4195890,0,0,0,0,0,0,0,0,0
1593,2,2022-09-30T20:57:11.422267,4195895,0,0,0,0,0,0,0,0,0
1594,2,2022-09-30T20:57:11.432263,4195907,0,0,0,0,0,0,0,0,0
1595,2,2022-09-30T20:57:11.438658,4195913,0,0,0,0,0,0,0,0,0
1596,2,2022-09-30T20:57:11.444203,4195918,0,0,0,0,0,0,0,0,0
1597,2,2022-09-30T20:57:11.453263,4195928,0,0,0,0,0,0,0,0,0
1598,2,2022-09-30T20:57:11.461240,4195936,0,0,0,0,0,0,0,0,0
1599,2,2022-09-30T20:57:11.468316,4195943,0,0,0,0,0,0,0,0,0
1600,2,2022-09-30T20:57:11.478885,4195952,0,0,0,0,0,0,0,0,0
1601,2,2022-09-30T20:57:11.484406,4195958,0,0,0,0,0,0,0,0,0
1602,2,2022-09-30T20:57:11.489779,4195964,0,0,0,0,0,0,0,0,0
1603,2,2022-09-30T20:57:11.497404,4195971,0,0,0,0,0,0,0,0,0
1604,2,2022-09-30T20:57:11.506082,4195981,0,0,0,0,0,0,0,0,0
1605,2,2022-09-30T20:57:11.515151,4195989,0,0,0,0,0,0,0,0,0
1606,2,2022-09-30T20:57:11.521772,4195995,0,0,0,0,0,0,0,0,0
1607,2,2022-09-30T20:57:11.530123,4196004,0,0,0,0,0,0,0,0,0
1608,2,2022-09-30T20:57:11.540217,4196014,0,0,0,0,0,0,0,0,0
1609,2,2022-09-30T20:57:11.547434,4196021,0,0,0,0,0,0,0,0,0
1610,2,2022-09-30T20:57:11.555382,4196029,0,0,0,0,0,0,0,0,0
1611,2,2022-09-30T20:57:11.561029,4196035,0,0,0,0,0,0,0,0,0
1612,2,2022-09-30T20:57:11.567769,4196042,0,0,0,0,0,0,0,0,0
1613,2,2022-09-30T20:57:11.575954,4196050,0,0,0,0,0,0,0,0,0
1614,2,2022-09-30T20:57:11.581657,4196056,0,0,0,0,0,0,0,0,0
1615,2,2022-09-30T20:57:11.588850,4196063,0,0,0,0,0,0,0,0,0
1616,2,2022-09-30T20:57:11.596929,4196071,0,0,0,0,0,0,0,0,0
1617,2,2022-09-30T20:57:11.602495,4196077,0,0,0,0,0,0,0,0,0
1618,2,2022-09-30T20:57:11.610076,4196084,0,0,0,0,0,0,0,0,0
1619,2,2022-09-30T20:57:11.621189,4196092,0,0,0,0,0,0,0,0,0
1620,2,2022-09-30T20:57:11.627624,4196101,0,0,0,0,0,0,0,0,0
1621,2,2022-09-30T20:57:11.634633,4196107,0,0,0,0,0,0,0,0,0
1622,2,2022-09-30T20:57:11.640531,4196114,0,0,0,0,0,0,0,0,0
1623,2,2022-09-30T20:57:11.648274,4196121,0,0,0,0,0,0,0,0,0
1624,2,2022-09-30T20:57:11.659217,4196132,0,0,0,0,0,0,0,0,0
1625,2,2022-09-30T20:57:11.665711,4196140,0,0,0,0,0,0,0,0,0
1626,2,2022-09-30T20:57:11.675750,4196149,0,0,0,0,0,0,0,0,0
1627,2,2022-09-30T20:57:11.682256,4196156,0,0,0,0,0,0,0,0,0
1628,2,2022-09-30T20:57:11.690481,4196165,0,0,0,0,0,0,0,0,0
1629,2,2022-09-30T20:57:11.698014,4196172,0,0,0,0,0,0,0,0,0
1630,2,2022-09-30T20:57:11.705270,4196179,0,0,0,0,0,0,0,0,0
1631,2,2022-09-30T20:57:11.715341,4196190,0,0,0,0,0,0,0,0,0
1632,2,2022-09-30T20:57:11.722503,4196196,0,0,0,0,0,0,0,0,0
1633,2,2022-09-30T20:57:11.731545,4196205,0,0,0,0,0,0,0,0,0
1634,2,2022-09-30T20:57:11.739026,4196213,0,0,0,0,0,0,0,0,0
1635,2,2022-09-30T20:57:11.744407,4196218,0,0,0,0,0,0,0,0,0
1636,2,2022-09-30T20:57:11.753227,4196227,0,0,0,0,0,0,0,0,0
1637,2,2022-09-30T20:57:11.761521,4196236,0,0,0,0,0,0,0,0,0
1638,2,2022-09-30T20:57:11.768370,4196243,0,0,0,0,0,0,0,0,0
1639,2,2022-09-30T20:57:11.777905,4196252,0,0,0,0,0,0,0,0,0
1640,2,2022-09-30T20:57:11.784204,4196258,0,0,0,0,0,0,0,0,0
1641,2,2022-09-30T20:57:11.790787,4196265,0,0,0,0,0,0,0,0,0
1642,2,2022-09-30T20:57:11.798802,4196272,0,0,0,0,0,0,0,0,0
1643,2,2022-09-30T20:57:11.806891,4196281,0,0,0,0,0,0,0,0,0
1644,2,2022-09-30T20:57:11.814723,4196289,0,0,0,0,0,0,0,0,0
1645,2,2022-09-30T20:57:11.820798,4196295,0,0,0,0,0,0,0,0,0
1646,2,2022-09-30T20:57:11.827349,4196301,0,0,0,0,0,0,0,0,0
1647,2,2022-09-30T20:57:11.835495,4196310,0,0,0,0,0,0,0,0,0
1648,2,2022-09-30T20:57:11.841703,4196316,0,0,0,0,0,0,0,0,0
1649,2,2022-09-30T20:57:11.850628,4196325,0,0,0,0,0,0,0,0,0
1650,2,2022-09-30T20:57:11.859283,4196334,0,0,0,0,0,0,0,0,0
1651,2,2022-09-30T20:57:11.864919,4196339,0,0,0,0,0,0,0,0,0
1652,2,2022-09-30T20:57:11.873320,4196346,0,0,0,0,0,0,0,0,0
1653,2,2022-09-30T20:57:11.883102,4196358,0,0,0,0,0,0,0,0,0
1654,2,2022-09-30T20:57:11.890813,4196365,0,0,0,0,0,0,0,0,0
1655,2,2022-09-30T20:57:11.900237,4196374,0,0,0,0,0,0,0,0,0
1656,2,2022-09-30T20:57:11.906675,4196381,0,0,0,0,0,0,0,0,0
1657,2,2022-09-30T20:57:11.914832,4196389,0,0,0,0,0,0,0,0,0
1658,2,2022-09-30T20:57:11.921413,4196396,0,0,0,0,0,0,0,0,0
1659,2,2022-09-30T20:57:11.929900,4196405,0,0,0,0,0,0,0,0,0
1660,2,2022-09-30T20:57:11.936553,4196411,0,0,0,0,0,0,0,0,0
1661,2,2022-09-30T20:57:11.942234,4196416,0,0,0,0,0,0,0,0,0
1662,2,2022-09-30T20:57:11.949348,4196423,0,0,0,0,0,0,0,0,0
1663,2,2022-09-30T20:57:11.957742,4196431,0,0,0,0,0,0,0,0,0
1664,2,2022-09-30T20:57:11.963237,4196438,0,0,0,0,0,0,0,0,0
1665,2,2022-09-30T20:57:11.970692,4196445,0,0,0,0,0,0,0,0,0
1666,2,2022-09-30T20:57:11.980620,4196455,0,0,0,0,0,0,0,0,0
1667,2,2022-09-30T20:57:11.988553,4196463,0,0,0,0,0,0,0,0,0
1668,2,2022-09-30T20:57:11.997736,4196471,0,0,0,0,0,0,0,0,0
1669,2,2022-09-30T20:57:12.004242,4196478,0,0,0,0,0,0,0,0,0
1670,2,2022-09-30T20:57:12.012542,4196487,0,0,0,0,0,0,0,0,0
1671,2,2022-09-30T20:57:12.021813,4196494,0,0,0,0,0,0,0,0,0
1672,2,2022-09-30T20:57:12.028988,4196503,0,0,0,0,0,0,0,0,0
1673,2,2022-09-30T20:57:12.039620,4196514,0,0,0,0,0,0,0,0,0
1674,2,2022-09-30T20:57:12.045362,4196519,0,0,0,0,0,0,0,0,0
1675,2,2022-09-30T20:57:12.055735,4196530,0,0,0,0,0,0,0,0,0
1676,2,2022-09-30T20:57:12.063535,4196538,0,0,0,0,0,0,0,0,0
1677,2,2022-09-30T20:57:12.070007,4196544,0,0,0,0,0,0,0,0,0
1678,2,2022-09-30T20:57:12.080984,4196555,0,0,0,0,0,0,0,0,0
1679,2,2022-09-30T20:57:12.090301,4196564,0,0,0,0,0,0,0,0,0
1680,2,2022-09-30T20:57:12.097352,4196572,0,0,0,0,0,0,0,0,0
1681,2,2022-09-30T20:57:12.105562,4196579,0,0,0,0,0,0,0,0,0
1682,2,2022-09-30T20:57:12.113152,4196587,0,0,0,0,0,0,0,0,0
1683,2,2022-09-30T20:57:12.120733,4196594,0,0,0,0,0,0,0,0,0
1684,2,2022-09-30T20:57:12.127576,4196602,0,0,0,0,0,0,0,0,0
1685,2,2022-09-30T20:57:12.136741,4196612,0,0,0,0,0,0,0,0,0
1686,2,2022-09-30T20:57:12.142122,4196617,0,0,0,0,0,0,0,0,0
1687,2,2022-09-30T20:57:12.150800,4196625,0,0,0,0,0,0,0,0,0
1688,2,2022-09-30T20:57:12.158579,4196633,0,0,0,0,0,0,0,0,0
1689,2,2022-09-30T20:57:12.164597,4196639,0,0,0,0,0,0,0,0,0
1690,2,2022-09-30T20:57:12.173492,4196645,0,0,0,0,0,0,0,0,0
1691,2,2022-09-30T20:57:12.182659,4196657,0,0,0,0,0,0,0,0,0
1692,2,2022-09-30T20:57:12.189628,4196664,0,0,0,0,0,0,0,0,0
1693,2,2022-09-30T20:57:12.197216,4196671,0,0,0,0,0,0,0,0,0
1694,2,2022-09-30T20:57:12.203087,4196677,0,0,0,0,0,0,0,0,0
1695,2,2022-09-30T20:57:12.208960,4196682,0,0,0,0,0,0,0,0,0
1696,2,2022-09-30T20:57:12.216887,4196691,0,0,0,0,0,0,0,0,0
1697,2,2022-09-30T20:57:12.223221,4196698,0,0,0,0,0,0,0,0,0
1698,2,2022-09-30T20:57:12.231513,4196706,0,0,0,0,0,0,0,0,0
1699,2,2022-09-30T20:57:12.238941,4196713,0,0,0,0,0,0,0,0,0
1700,2,2022-09-30T20:57:12.245558,4196719,0,0,0,0,0,0,0,0,0
1701,2,2022-09-30T20:57:12.254682,4196729,0,0,0,0,0,0,0,0,0
1702,2,2022-09-30T20:57:12.262490,4196737,0,0,0,0,0,0,0,0,0
1703,2,2022-09-30T20:57:12.270274,4196744,0,0,0,0,0,0,0,0,0
1704,2,2022-09-30T20:57:12.281233,4196756,0,0,0,0,0,0,0,0,0
1705,2,2022-09-30T20:57:12.289380,4196764,0,0,0,0,0,0,0,0,0
1706,2,2022-09-30T20:57:12.297066,4196770,0,0,0,0,0,0,0,0,0
1707,2,2022-09-30T20:57:12.303854,4196779,0,0,0,0,0,0,0,0,0
1708,2,2022-09-30T20:57:12.310570,4196785,0,0,0,0,0,0,0,0,0
1709,2,2022-09-30T20:57:12.315950,4196790,0,0,0,0,0,0,0,0,0
1710,2,2022-09-30T20:57:12.322255,4196796,0,0,0,0,0,0,0,0,0
1711,2,2022-09-30T20:57:12.330331,4196805,0,0,0,0,0,0,0,0,0
1712,2,2022-09-30T20:57:12.339162,4196813,0,0,0,0,0,0,0,0,0
1713,2,2022-09-30T20:57:12.344414,4196818,0,0,0,0,0,0,0,0,0
1714,2,2022-09-30T20:57:12.353383,4196828,0,0,0,0,0,0,0,0,0
1715,2,2022-09-30T20:57:12.362177,4196837,0,0,0,0,0,0,0,0,0
1716,2,2022-09-30T20:57:12.369033,4196843,0,0,0,0,0,0,0,0,0
1717,2,2022-09-30T20:57:12.379514,4196854,0,0,0,0,0,0,0,0,0
1718,2,2022-09-30T20:57:12.385939,4196860,0,0,0,0,0,0,0,0,0
1719,2,2022-09-30T20:57:12.392614,4196867,0,0,0,0,0,0,0,0,0
1720,2,2022-09-30T20:57:12.400191,4196874,0,0,0,0,0,0,0,0,0
1721,2,2022-09-30T20:57:12.408755,4196883,0,0,0,0,0,0,0,0,0
1722,2,2022-09-30T20:57:12.416042,4196890,0,0,0,0,0,0,0,0,0
1723,2,2022-09-30T20:57:12.422010,4196895,0,0,0,0,0,0,0,0,0
1724,2,2022-09-30T20:57:12.432745,4196908,0,0,0,0,0,0,0,0,0
1725,2,2022-09-30T20:57:12.438385,4196913,0,0,0,0,0,0,0,0,0
1726,2,2022-09-30T20:57:12.443942,4196919,0,0,0,0,0,0,0,0,0
1727,2,2022-09-30T20:57:12.453757,4196928,0,0,0,0,0,0,0,0,0
1728,2,2022-09-30T20:57:12.460912,4196935,0,0,0,0,0,0,0,0,0
1729,2,2022-09-30T20:57:12.468086,4196942,0,0,0,0,0,0,0,0,0
1730,2,2022-09-30T20:57:12.476836,4196950,0,0,0,0,0,0,0,0,0
1731,2,2022-09-30T20:57:12.483594,4196958,0,0,0,0,0,0,0,0,0
1732,2,2022-09-30T20:57:12.490292,4196965,0,0,0,0,0,0,0,0,0
1733,2,2022-09-30T20:57:12.497902,4196971,0,0,0,0,0,0,0,0,0
1734,2,2022-09-30T20:57:12.504654,4196978,0,0,0,0,0,0,0,0,0
1735,2,2022-09-30T20:57:12.513059,4196987,0,0,0,0,0,0,0,0,0
1736,2,2022-09-30T20:57:12.518513,4196993,0,0,0,0,0,0,0,0,0
1737,2,2022-09-30T20:57:12.525920,4197000,0,0,0,0,0,0,0,0,0
1738,2,2022-09-30T20:57:12.534701,4197009,0,0,0,0,0,0,0,0,0
1739,2,2022-09-30T20:57:12.541624,4197016,0,0,0,0,0,0,0,0,0
1740,2,2022-09-30T20:57:12.548791,4197023,0,0,0,0,0,0,0,0,0
1741,2,2022-09-30T20:57:12.556225,4197030,0,0,0,0,0,0,0,0,0
1742,2,2022-09-30T20:57:12.562537,4197037,0,0,0,0,0,0,0,0,0
1743,2,2022-09-30T20:57:12.570437,4197045,0,0,0,0,0,0,0,0,0
1744,2,2022-09-30T20:57:12.578180,4197053,0,0,0,0,0,0,0,0,0
1745,2,2022-09-30T20:57:12.584042,4197058,0,0,0,0,0,0,0,0,0
1746,2,2022-09-30T20:57:12.589567,4197064,0,0,0,0,0,0,0,0,0
1747,2,2022-09-30T20:57:12.596282,4197070,0,0,0,0,0,0,0,0,0
1748,2,2022-09-30T20:57:12.603482,4197078,0,0,0,0,0,0,0,0,0
1749,2,2022-09-30T20:57:12.611985,4197086,0,0,0,0,0,0,0,0,0
1750,2,2022-09-30T20:57:12.622431,4197095,0,0,0,0,0,0,0,0,0
1751,2,2022-09-30T20:57:12.628804,4197103,0,0,0,0,0,0,0,0,0
1752,2,2022-09-30T20:57:12.639783,4197114,0,0,0,0,0,0,0,0,0
1753,2,2022-09-30T20:57:12.645614,4197120,0,0,0,0,0,0,0,0,0
1754,2,2022-09-30T20:57:12.656644,4197132,0,0,0,0,0,0,0,0,0
1755,2,2022-09-30T20:57:12.664211,4197139,0,0,0,0,0,0,0,0,0
1756,2,2022-09-30T20:57:12.671087,4197145,0,0,0,0,0,0,0,0,0
1757,2,2022-09-30T20:57:12.679961,4197154,0,0,0,0,0,0,0,0,0
1758,2,2022-09-30T20:57:12.685361,4197159,0,0,0,0,0,0,0,0,0
1759,2,2022-09-30T20:57:12.690957,4197165,0,0,0,0,0,0,0,0,0
1760,2,2022-09-30T20:57:12.701535,4197175,0,0,0,0,0,0,0,0,0
1761,2,2022-09-30T20:57:12.709403,4197184,0,0,0,0,0,0,0,0,0
1762,2,2022-09-30T20:57:12.717069,4197191,0,0,0,0,0,0,0,0,0
1763,2,2022-09-30T20:57:12.723006,4197197,0,0,0,0,0,0,0,0,0
1764,2,2022-09-30T20:57:12.733197,4197208,0,0,0,0,0,0,0,0,0
1765,2,2022-09-30T20:57:12.739727,4197215,0,0,0,0,0,0,0,0,0
1766,2,2022-09-30T20:57:12.745525,4197220,0,0,0,0,0,0,0,0,0
1767,2,2022-09-30T20:57:12.754944,4197229,0,0,0,0,0,0,0,0,0
1768,2,2022-09-30T20:57:12.763834,4197238,0,0,0,0,0,0,0,0,0
1769,2,2022-09-30T20:57:12.772049,4197245,0,0,0,0,0,0,0,0,0
1770,2,2022-09-30T20:57:12.780498,4197255,0,0,0,0,0,0,0,0,0
1771,2,2022-09-30T20:57:12.786761,4197261,0,0,0,0,0,0,0,0,0
1772,2,2022-09-30T20:57:12.794686,4197269,0,0,0,0,0,0,0,0,0
1773,2,2022-09-30T20:57:12.803124,4197277,0,0,0,0,0,0,0,0,0
1774,2,2022-09-30T20:57:12.808546,4197283,0,0,0,0,0,0,0,0,0
1775,2,2022-09-30T20:57:12.814869,4197289,0,0,0,0,0,0,0,0,0
1776,2,2022-09-30T20:57:12.820724,4197295,0,0,0,0,0,0,0,0,0
1777,2,2022-09-30T20:57:12.830310,4197305,0,0,0,0,0,0,0,0,0
1778,2,2022-09-30T20:57:12.838263,4197313,0,0,0,0,0,0,0,0,0
1779,2,2022-09-30T20:57:12.843519,4197318,0,0,0,0,0,0,0,0,0
1780,2,2022-09-30T20:57:12.853108,4197326,0,0,0,0,0,0,0,0,0
1781,2,2022-09-30T20:57:12.860923,4197336,0,0,0,0,0,0,0,0,0
1782,2,2022-09-30T20:57:12.867137,4197341,0,0,0,0,0,0,0,0,0
1783,2,2022-09-30T20:57:12.877778,4197352,0,0,0,0,0,0,0,0,0
1784,2,2022-09-30T20:57:12.883311,4197358,0,0,0,0,0,0,0,0,0
1785,2,2022-09-30T20:57:12.888516,4197363,0,0,0,0,0,0,0,0,0
1786,2,2022-09-30T20:57:12.896111,4197370,0,0,0,0,0,0,0,0,0
1787,2,2022-09-30T20:57:12.904531,4197379,0,0,0,0,0,0,0,0,0
1788,2,2022-09-30T20:57:12.912563,4197387,0,0,0,0,0,0,0,0,0
1789,2,2022-09-30T20:57:12.919051,4197394,0,0,0,0,0,0,0,0,0
1790,2,2022-09-30T20:57:12.925227,4197399,0,0,0,0,0,0,0,0,0
1791,2,2022-09-30T20:57:12.934423,4197408,0,0,0,0,0,0,0,0,0
1792,2,2022-09-30T20:57:12.941443,4197415,0,0,0,0,0,0,0,0,0
1793,2,2022-09-30T20:57:12.948479,4197422,0,0,0,0,0,0,0,0,0
1794,2,2022-09-30T20:57:12.957487,4197432,0,0,0,0,0,0,0,0,0
1795,2,2022-09-30T20:57:12.963401,4197438,0,0,0,0,0,0,0,0,0
1796,2,2022-09-30T20:57:12.970159,4197444,0,0,0,0,0,0,0,0,0
1797,2,2022-09-30T20:57:12.982499,4197454,0,0,0,0,0,0,0,0,0
1798,2,2022-09-30T20:57:12.988917,4197464,0,0,0,0,0,0,0,0,0
1799,2,2022-09-30T20:57:12.997870,4197472,0,0,0,0,0,0,0,0,0
1800,2,2022-09-30T20:57:13.005366,4197480,0,0,0,0,0,0,0,0,0
1801,2,2022-09-30T20:57:13.014207,4197488,0,0,0,0,0,0,0,0,0
1802,2,2022-09-30T20:57:13.022131,4197496,0,0,0,0,0,0,0,0,0
1803,2,2022-09-30T20:57:13.028750,4197504,0,0,0,0,0,0,0,0,0
1804,2,2022-09-30T20:57:13.036797,4197512,0,0,0,0,0,0,0,0,0
1805,2,2022-09-30T20:57:13.042627,4197517,0,0,0,0,0,0,0,0,0
1806,2,2022-09-30T20:57:13.050070,4197525,0,0,0,0,0,0,0,0,0
1807,2,2022-09-30T20:57:13.056883,4197531,0,0,0,0,0,0,0,0,0
1808,2,2022-09-30T20:57:13.062740,4197536,0,0,0,0,0,0,0,0,0
1809,2,2022-09-30T20:57:13.069903,4197544,0,0,0,0,0,0,0,0,0
1810,2,2022-09-30T20:57:13.079932,4197554,0,0,0,0,0,0,0,0,0
1811,2,2022-09-30T20:57:13.085683,4197560,0,0,0,0,0,0,0,0,0
1812,2,2022-09-30T20:57:13.094274,4197568,0,0,0,0,0,0,0,0,0
1813,2,2022-09-30T20:57:13.104211,4197578,0,0,0,0,0,0,0,0,0
1814,2,2022-09-30T20:57:13.110294,4197585,0,0,0,0,0,0,0,0,0
1815,2,2022-09-30T20:57:13.116700,4197592,0,0,0,0,0,0,0,0,0
1816,2,2022-09-30T20:57:13.123001,4197598,0,0,0,0,0,0,0,0,0
1817,2,2022-09-30T20:57:13.129844,4197604,0,0,0,0,0,0,0,0,0
1818,2,2022-09-30T20:57:13.137859,4197612,0,0,0,0,0,0,0,0,0
1819,2,2022-09-30T20:57:13.144089,4197618,0,0,0,0,0,0,0,0,0
1820,2,2022-09-30T20:57:13.154253,4197628,0,0,0,0,0,0,0,0,0
1821,2,2022-09-30T20:57:13.160831,4197636,0,0,0,0,0,0,0,0,0
1822,2,2022-09-30T20:57:13.166477,4197641,0,0,0,0,0,0,0,0,0
1823,2,2022-09-30T20:57:13.173720,4197646,0,0,0,0,0,0,0,0,0
1824,2,2022-09-30T20:57:13.183106,4197657,0,0,0,0,0,0,0,0,0
1825,2,2022-09-30T20:57:13.190996,4197665,0,0,0,0,0,0,0,0,0
1826,2,2022-09-30T20:57:13.200684,4197675,0,0,0,0,0,0,0,0,0
1827,2,2022-09-30T20:57:13.206975,4197682,0,0,0,0,0,0,0,0,0
1828,2,2022-09-30T20:57:13.216551,4197691,0,0,0,0,0,0,0,0,0
1829,2,2022-09-30T20:57:13.222924,4197696,0,0,0,0,0,0,0,0,0
1830,2,2022-09-30T20:57:13.230847,4197705,0,0,0,0,0,0,0,0,0
1831,2,2022-09-30T20:57:13.238609,4197713,0,0,0,0,0,0,0,0,0
1832,2,2022-09-30T20:57:13.243849,4197719,0,0,0,0,0,0,0,0,0
1833,2,2022-09-30T20:57:13.253585,4197728,0,0,0,0,0,0,0,0,0
1834,2,2022-09-30T20:57:13.263099,4197738,0,0,0,0,0,0,0,0,0
1835,2,2022-09-30T20:57:13.270773,4197745,0,0,0,0,0,0,0,0,0
1836,2,2022-09-30T20:57:13.281740,4197756,0,0,0,0,0,0,0,0,0
1837,2,2022-09-30T20:57:13.288722,4197764,0,0,0,0,0,0,0,0,0
1838,2,2022-09-30T20:57:13.295378,4197770,0,0,0,0,0,0,0,0,0
1839,2,2022-09-30T20:57:13.303485,4197777,0,0,0,0,0,0,0,0,0
1840,2,2022-09-30T20:57:13.311377,4197786,0,0,0,0,0,0,0,0,0
1841,2,2022-09-30T20:57:13.317321,4197792,0,0,0,0,0,0,0,0,0
1842,2,2022-09-30T20:57:13.323555,4197797,0,0,0,0,0,0,0,0,0
1843,2,2022-09-30T20:57:13.334502,4197809,0,0,0,0,0,0,0,0,0
1844,2,2022-09-30T20:57:13.341325,4197816,0,0,0,0,0,0,0,0,0
1845,2,2022-09-30T20:57:13.348226,4197822,0,0,0,0,0,0,0,0,0
1846,2,2022-09-30T20:57:13.356430,4197831,0,0,0,0,0,0,0,0,0
1847,2,2022-09-30T20:57:13.362937,4197837,0,0,0,0,0,0,0,0,0
1848,2,2022-09-30T20:57:13.372612,4197847,0,0,0,0,0,0,0,0,0
1849,2,2022-09-30T20:57:13.379732,4197854,0,0,0,0,0,0,0,0,0
1850,2,2022-09-30T20:57:13.385000,4197860,0,0,0,0,0,0,0,0,0
1851,2,2022-09-30T20:57:13.391102,4197866,0,0,0,0,0,0,0,0,0
1852,2,2022-09-30T20:57:13.398242,4197872,0,0,0,0,0,0,0,0,0
1853,2,2022-09-30T20:57:13.404417,4197878,0,0,0,0,0,0,0,0,0
1854,2,2022-09-30T20:57:13.410970,4197885,0,0,0,0,0,0,0,0,0
1855,2,2022-09-30T20:57:13.417823,4197893,0,0,0,0,0,0,0,0,0
1856,2,2022-09-30T20:57:13.427347,4197901,0,0,0,0,0,0,0,0,0
1857,2,2022-09-30T20:57:13.434100,4197909,0,0,0,0,0,0,0,0,0
1858,2,2022-09-30T20:57:13.441588,4197916,0,0,0,0,0,0,0,0,0
1859,2,2022-09-30T20:57:13.449647,4197922,0,0,0,0,0,0,0,0,0
1860,2,2022-09-30T20:57:13.458557,4197934,0,0,0,0,0,0,0,0,0
1861,2,2022-09-30T20:57:13.464539,4197939,0,0,0,0,0,0,0,0,0
1862,2,2022-09-30T20:57:13.473142,4197946,0,0,0,0,0,0,0,0,0
1863,2,2022-09-30T20:57:13.482023,4197956,0,0,0,0,0,0,0,0,0
1864,2,2022-09-30T20:57:13.490076,4197964,0,0,0,0,0,0,0,0,0
1865,2,2022-09-30T20:57:13.496932,4197970,0,0,0,0,0,0,0,0,0
1866,2,2022-09-30T20:57:13.504093,4197979,0,0,0,0,0,0,0,0,0
1867,2,2022-09-30T20:57:13.512593,4197987,0,0,0,0,0,0,0,0,0
1868,2,2022-09-30T20:57:13.519858,4197994,0,0,0,0,0,0,0,0,0
1869,2,2022-09-30T20:57:13.527464,4198001,0,0,0,0,0,0,0,0,0
1870,2,2022-09-30T20:57:13.536336,4198010,0,0,0,0,0,0,0,0,0
1871,2,2022-09-30T20:57:13.542991,4198018,0,0,0,0,0,0,0,0,0
1872,2,2022-09-30T20:57:13.551133,4198023,0,0,0,0,0,0,0,0,0
1873,2,2022-09-30T20:57:13.560441,4198035,0,0,0,0,0,0,0,0,0
1874,2,2022-09-30T20:57:13.565497,4198040,0,0,0,0,0,0,0,0,0
1875,2,2022-09-30T20:57:13.572408,4198046,0,0,0,0,0,0,0,0,0
1876,2,2022-09-30T20:57:13.582280,4198056,0,0,0,0,0,0,0,0,0
1877,2,2022-09-30T20:57:13.589325,4198064,0,0,0,0,0,0,0,0,0
1878,2,2022-09-30T20:57:13.595820,4198070,0,0,0,0,0,0,0,0,0
1879,2,2022-09-30T20:57:13.604743,4198078,0,0,0,0,0,0,0,0,0
1880,2,2022-09-30T20:57:13.613008,4198087,0,0,0,0,0,0,0,0,0
1881,2,2022-09-30T20:57:13.619424,4198094,0,0,0,0,0,0,0,0,0
1882,2,2022-09-30T20:57:13.628000,4198100,0,0,0,0,0,0,0,0,0
1883,2,2022-09-30T20:57:13.634245,4198109,0,0,0,0,0,0,0,0,0
1884,2,2022-09-30T20:57:13.640960,4198116,0,0,0,0,0,0,0,0,0
1885,2,2022-09-30T20:57:13.646535,4198121,0,0,0,0,0,0,0,0,0
1886,2,2022-09-30T20:57:13.658354,4198133,0,0,0,0,0,0,0,0,0
1887,2,2022-09-30T20:57:13.665064,4198139,0,0,0,0,0,0,0,0,0
1888,2,2022-09-30T20:57:13.671974,4198146,0,0,0,0,0,0,0,0,0
1889,2,2022-09-30T20:57:13.680747,4198155,0,0,0,0,0,0,0,0,0
1890,2,2022-09-30T20:57:13.686926,4198161,0,0,0,0,0,0,0,0,0
1891,2,2022-09-30T20:57:13.694060,4198168,0,0,0,0,0,0,0,0,0
1892,2,2022-09-30T20:57:13.705288,4198179,0,0,0,0,0,0,0,0,0
1893,2,2022-09-30T20:57:13.713464,4198188,0,0,0,0,0,0,0,0,0
1894,2,2022-09-30T20:57:13.720983,4198195,0,0,0,0,0,0,0,0,0
1895,2,2022-09-30T20:57:13.727641,4198202,0,0,0,0,0,0,0,0,0
1896,2,2022-09-30T20:57:13.736258,4198211,0,0,0,0,0,0,0,0,0
1897,2,2022-09-30T20:57:13.743417,4198218,0,0,0,0,0,0,0,0,0
1898,2,2022-09-30T20:57:13.752007,4198226,0,0,0,0,0,0,0,0,0
1899,2,2022-09-30T20:57:13.760063,4198235,0,0,0,0,0,0,0,0,0
1900,2,2022-09-30T20:57:13.765975,4198241,0,0,0,0,0,0,0,0,0
1901,2,2022-09-30T20:57:13.774008,4198246,0,0,0,0,0,0,0,0,0
1902,2,2022-09-30T20:57:13.781964,4198256,0,0,0,0,0,0,0,0,0
1903,2,2022-09-30T20:57:13.787432,4198261,0,0,0,0,0,0,0,0,0
1904,2,2022-09-30T20:57:13.792826,4198267,0,0,0,0,0,0,0,0,0
1905,2,2022-09-30T20:57:13.802835,4198277,0,0,0,0,0,0,0,0,0
1906,2,2022-09-30T20:57:13.807967,4198283,0,0,0,0,0,0,0,0,0
1907,2,2022-09-30T20:57:13.814500,4198289,0,0,0,0,0,0,0,0,0
1908,2,2022-09-30T20:57:13.819959,4198294,0,0,0,0,0,0,0,0,0
1909,2,2022-09-30T20:57:13.826011,4198300,0,0,0,0,0,0,0,0,0
1910,2,2022-09-30T20:57:13.834888,4198308,0,0,0,0,0,0,0,0,0
1911,2,2022-09-30T20:57:13.841880,4198317,0,0,0,0,0,0,0,0,0
1912,2,2022-09-30T20:57:13.849844,4198323,0,0,0,0,0,0,0,0,0
1913,2,2022-09-30T20:57:13.857990,4198333,0,0,0,0,0,0,0,0,0
1914,2,2022-09-30T20:57:13.864360,4198339,0,0,0,0,0,0,0,0,0
1915,2,2022-09-30T20:57:13.873362,4198345,0,0,0,0,0,0,0,0,0
1916,2,2022-09-30T20:57:13.883809,4198359,0,0,0,0,0,0,0,0,0
1917,2,2022-09-30T20:57:13.889298,4198364,0,0,0,0,0,0,0,0,0
1918,2,2022-09-30T20:57:13.896547,4198370,0,0,0,0,0,0,0,0,0
1919,2,2022-09-30T20:57:13.902743,4198377,0,0,0,0,0,0,0,0,0
1920,2,2022-09-30T20:57:13.912669,4198385,0,0,0,0,0,0,0,0,0
1921,2,2022-09-30T20:57:13.918761,4198393,0,0,0,0,0,0,0,0,0
1922,2,2022-09-30T20:57:13.926017,4198401,0,0,0,0,0,0,0,0,0
1923,2,2022-09-30T20:57:13.931139,4198406,0,0,0,0,0,0,0,0,0
1924,2,2022-09-30T20:57:13.937843,4198413,0,0,0,0,0,0,0,0,0
1925,2,2022-09-30T20:57:13.942398,4198417,0,0,0,0,0,0,0,0,0
1926,2,2022-09-30T20:57:13.949365,4198423,0,0,0,0,0,0,0,0,0
1927,2,2022-09-30T20:57:13.958215,4198432,0,0,0,0,0,0,0,0,0
1928,2,2022-09-30T20:57:13.963681,4198438,0,0,0,0,0,0,0,0,0
1929,2,2022-09-30T20:57:13.969774,4198445,0,0,0,0,0,0,0,0,0
1930,2,2022-09-30T20:57:13.981683,4198455,0,0,0,0,0,0,0,0,0
1931,2,2022-09-30T20:57:13.989658,4198464,0,0,0,0,0,0,0,0,0
1932,2,2022-09-30T20:57:13.998014,4198472,0,0,0,0,0,0,0,0,0
1933,2,2022-09-30T20:57:14.005678,4198480,0,0,0,0,0,0,0,0,0
1934,2,2022-09-30T20:57:14.011110,4198486,0,0,0,0,0,0,0,0,0
1935,2,2022-09-30T20:57:14.018335,4198493,0,0,0,0,0,0,0,0,0
1936,2,2022-09-30T20:57:14.024907,4198498,0,0,0,0,0,0,0,0,0
1937,2,2022-09-30T20:57:14.034306,4198509,0,0,0,0,0,0,0,0,0
1938,2,2022-09-30T20:57:14.042199,4198517,0,0,0,0,0,0,0,0,0
1939,2,2022-09-30T20:57:14.051252,4198525,0,0,0,0,0,0,0,0,0
1940,2,2022-09-30T20:57:14.056643,4198531,0,0,0,0,0,0,0,0,0
1941,2,2022-09-30T20:57:14.062854,4198538,0,0,0,0,0,0,0,0,0
1942,2,2022-09-30T20:57:14.068692,4198543,0,0,0,0,0,0,0,0,0
1943,2,2022-09-30T20:57:14.077621,4198552,0,0,0,0,0,0,0,0,0
1944,2,2022-09-30T20:57:14.082784,4198557,0,0,0,0,0,0,0,0,0
1945,2,2022-09-30T20:57:14.089082,4198563,0,0,0,0,0,0,0,0,0
1946,2,2022-09-30T20:57:14.095842,4198571,0,0,0,0,0,0,0,0,0
1947,2,2022-09-30T20:57:14.103346,4198578,0,0,0,0,0,0,0,0,0
1948,2,2022-09-30T20:57:14.109167,4198583,0,0,0,0,0,0,0,0,0
1949,2,2022-09-30T20:57:14.116023,4198591,0,0,0,0,0,0,0,0,0
1950,2,2022-09-30T20:57:14.122047,4198596,0,0,0,0,0,0,0,0,0
1951,2,2022-09-30T20:57:14.131456,4198606,0,0,0,0,0,0,0,0,0
1952,2,2022-09-30T20:57:14.138107,4198612,0,0,0,0,0,0,0,0,0
1953,2,2022-09-30T20:57:14.143852,4198619,0,0,0,0,0,0,0,0,0
1954,2,2022-09-30T20:57:14.151114,4198624,0,0,0,0,0,0,0,0,0
1955,2,2022-09-30T20:57:14.158565,4198633,0,0,0,0,0,0,0,0,0
1956,2,2022-09-30T20:57:14.164443,4198639,0,0,0,0,0,0,0,0,0
1957,2,2022-09-30T20:57:14.172679,4198646,0,0,0,0,0,0,0,0,0
1958,2,2022-09-30T20:57:14.182080,4198657,0,0,0,0,0,0,0,0,0
1959,2,2022-09-30T20:57:14.189397,4198664,0,0,0,0,0,0,0,0,0
1960,2,2022-09-30T20:57:14.196158,4198671,0,0,0,0,0,0,0,0,0
1961,2,2022-09-30T20:57:14.203587,4198678,0,0,0,0,0,0,0,0,0
1962,2,2022-09-30T20:57:14.212488,4198687,0,0,0,0,0,0,0,0,0
1963,2,2022-09-30T20:57:14.219139,4198693,0,0,0,0,0,0,0,0,0
1964,2,2022-09-30T20:57:14.225419,4198700,0,0,0,0,0,0,0,0,0
1965,2,2022-09-30T20:57:14.234111,4198709,0,0,0,0,0,0,0,0,0
1966,2,2022-09-30T20:57:14.242705,4198717,0,0,0,0,0,0,0,0,0
1967,2,2022-09-30T20:57:14.251580,4198726,0,0,0,0,0,0,0,0,0
1968,2,2022-09-30T20:57:14.259796,4198734,0,0,0,0,0,0,0,0,0
1969,2,2022-09-30T20:57:14.265012,4198739,0,0,0,0,0,0,0,0,0
1970,2,2022-09-30T20:57:14.271716,4198746,0,0,0,0,0,0,0,0,0
1971,2,2022-09-30T20:57:14.281873,4198757,0,0,0,0,0,0,0,0,0
1972,2,2022-09-30T20:57:14.290964,4198765,0,0,0,0,0,0,0,0,0
1973,2,2022-09-30T20:57:14.298045,4198772,0,0,0,0,0,0,0,0,0
1974,2,2022-09-30T20:57:14.304926,4198779,0,0,0,0,0,0,0,0,0
1975,2,2022-09-30T20:57:14.312378,4198788,0,0,0,0,0,0,0,0,0
1976,2,2022-09-30T20:57:14.318593,4198794,0,0,0,0,0,0,0,0,0
1977,2,2022-09-30T20:57:14.325129,4198798,0,0,0,0,0,0,0,0,0
1978,2,2022-09-30T20:57:14.334157,4198809,0,0,0,0,0,0,0,0,0
1979,2,2022-09-30T20:57:14.340844,4198816,0,0,0,0,0,0,0,0,0
1980,2,2022-09-30T20:57:14.346395,4198820,0,0,0,0,0,0,0,0,0
1981,2,2022-09-30T20:57:14.353656,4198828,0,0,0,0,0,0,0,0,0
1982,2,2022-09-30T20:57:14.361067,4198836,0,0,0,0,0,0,0,0,0
1983,2,2022-09-30T20:57:14.367825,4198842,0,0,0,0,0,0,0,0,0
1984,2,2022-09-30T20:57:14.374404,4198849,0,0,0,0,0,0,0,0,0
1985,2,2022-09-30T20:57:14.382808,4198857,0,0,0,0,0,0,0,0,0
1986,2,2022-09-30T20:57:14.391458,4198866,0,0,0,0,0,0,0,0,0
1987,2,2022-09-30T20:57:14.400064,4198873,0,0,0,0,0,0,0,0,0
1988,2,2022-09-30T20:57:14.407005,4198882,0,0,0,0,0,0,0,0,0
1989,2,2022-09-30T20:57:14.413813,4198888,0,0,0,0,0,0,0,0,0
1990,2,2022-09-30T20:57:14.421274,4198895,0,0,0,0,0,0,0,0,0
1991,2,2022-09-30T20:57:14.428802,4198903,0,0,0,0,0,0,0,0,0
1992,2,2022-09-30T20:57:14.437218,4198912,0,0,0,0,0,0,0,0,0
1993,2,2022-09-30T20:57:14.442677,4198917,0,0,0,0,0,0,0,0,0
1994,2,2022-09-30T20:57:14.450656,4198924,0,0,0,0,0,0,0,0,0
1995,2,2022-09-30T20:57:14.459729,4198934,0,0,0,0,0,0,0,0,0
1996,2,2022-09-30T20:57:14.465043,4198939,0,0,0,0,0,0,0,0,0
1997,2,2022-09-30T20:57:14.472609,4198946,0,0,0,0,0,0,0,0,0
1998,2,2022-09-30T20:57:14.482246,4198957,0,0,0,0,0,0,0,0,0
1999,2,2022-09-30T20:57:14.490293,4198965,0,0,0,0,0,0,0,0,0
2000,2,2022-09-30T20:57:14.497516,4198971,0,0,0,0,0,0,0,0,0
2001,2,2022-09-30T20:57:14.504807,4198979,0,0,0,0,0,0,0,0,0
2002,2,2022-09-30T20:57:14.514130,4198987,0,0,0,0,0,0,0,0,0
2003,2,2022-09-30T20:57:14.523256,4198998,0,0,0,0,0,0,0,0,0
2004,2,2022-09-30T20:57:14.529902,4199005,0,0,0,0,0,0,0,0,0
2005,2,2022-09-30T20:57:14.536375,4199011,0,0,0,0,0,0,0,0,0
2006,2,2022-09-30T20:57:14.542518,4199017,0,0,0,0,0,0,0,0,0
2007,2,2022-09-30T20:57:14.548133,4199022,0,0,0,0,0,0,0,0,0
2008,2,2022-09-30T20:57:14.553983,4199028,0,0,0,0,0,0,0,0,0
2009,2,2022-09-30T20:57:14.564098,4199037,0,0,0,0,0,0,0,0,0
2010,2,2022-09-30T20:57:14.572169,4199047,0,0,0,0,0,0,0,0,0
2011,2,2022-09-30T20:57:14.579656,4199054,0,0,0,0,0,0,0,0,0
2012,2,2022-09-30T20:57:14.585562,4199060,0,0,0,0,0,0,0,0,0
2013,2,2022-09-30T20:57:14.592055,4199066,0,0,0,0,0,0,0,0,0
2014,2,2022-09-30T20:57:14.598841,4199073,0,0,0,0,0,0,0,0,0
2015,2,2022-09-30T20:57:14.604253,4199078,0,0,0,0,0,0,0,0,0
2016,2,2022-09-30T20:57:14.610187,4199085,0,0,0,0,0,0,0,0,0
