,imu,server_time,arduino_time,ax,ay,az,gx,gy,gz,mx,my,mz
0,1,2022-09-30T20:56:59.957058,4184429,-1482,-140,-440,-1482,-374,-172,348,358,50
1,1,2022-09-30T20:56:59.968284,4184440,-1481,-158,-432,-1471,-392,-96,348,358,50
2,1,2022-09-30T20:56:59.974370,4184448,-1481,-158,-432,-1471,-392,-96,348,358,50
3,1,2022-09-30T20:56:59.980315,4184453,-1459,-168,-440,-1407,-442,-29,348,358,50
4,1,2022-09-30T20:56:59.985871,4184459,-1459,-168,-440,-1407,-442,-29,348,358,50
5,1,2022-09-30T20:56:59.992244,4184465,-1459,-168,-440,-1407,-442,-29,348,358,50
6,1,2022-09-30T20:56:59.999992,4184473,-1468,-152,-444,-1454,-334,-230,351,371,57
7,1,2022-09-30T20:57:00.005977,4184479,-1468,-152,-444,-1454,-334,-230,351,371,57
8,1,2022-09-30T20:57:00.012149,4184484,-1468,-152,-444,-1454,-334,-230,351,371,57
9,1,2022-09-30T20:57:00.020186,4184493,-1470,-149,-451,-1471,-293,-252,351,371,57
10,1,2022-09-30T20:57:00.028961,4184501,-1470,-149,-451,-1471,-293,-252,351,371,57
11,1,2022-09-30T20:57:00.035804,4184508,-1470,-149,-451,-1471,-293,-252,351,371,57
12,1,2022-09-30T20:57:00.042133,4184514,-1470,-149,-451,-1471,-293,-252,351,371,57
13,1,2022-09-30T20:57:00.051006,4184521,-1470,-149,-451,-1471,-293,-252,351,371,57
14,1,2022-09-30T20:57:00.056107,4184529,-1470,-149,-451,-1471,-293,-252,351,371,57
15,1,2022-09-30T20:57:00.062594,4184536,-1472,-151,-455,-1471,-175,-77,351,371,57
16,1,2022-09-30T20:57:00.069418,4184543,-1472,-151,-455,-1471,-175,-77,351,371,57
17,1,2022-09-30T20:57:00.074947,4184548,-1472,-151,-455,-1471,-175,-77,351,371,57
18,1,2022-09-30T20:57:00.081568,4184555,-1485,-148,-452,-1469,-156,-17,351,371,57
19,1,2022-09-30T20:57:00.087198,4184560,-1485,-148,-452,-1469,-156,-17,351,371,57
20,1,2022-09-30T20:57:00.093154,4184566,-1485,-148,-452,-1469,-156,-17,351,371,57
21,1,2022-09-30T20:57:00.098866,4184572,-1482,-144,-462,-1461,-225,-17,351,371,57
22,1,2022-09-30T20:57:00.104135,4184578,-1482,-144,-462,-1461,-225,-17,351,371,57
23,1,2022-09-30T20:57:00.109301,4184583,-1482,-144,-462,-1461,-225,-17,351,371,57
24,1,2022-09-30T20:57:00.115151,4184588,-1482,-144,-462,-1461,-225,-17,351,371,57
25,1,2022-09-30T20:57:00.123253,4184596,-1478,-140,-456,-1492,-306,-65,348,360,50
26,1,2022-09-30T20:57:00.128882,4184602,-1478,-140,-456,-1492,-306,-65,348,360,50
27,1,2022-09-30T20:57:00.134213,4184607,-1478,-140,-456,-1492,-306,-65,348,360,50
28,1,2022-09-30T20:57:00.141604,4184614,-1485,-138,-458,-1557,-354,-79,348,360,50
29,1,2022-09-30T20:57:00.148194,4184621,-1485,-138,-458,-1557,-354,-79,348,360,50
30,1,2022-09-30T20:57:00.153307,4184627,-1485,-138,-458,-1557,-354,-79,348,360,50
31,1,2022-09-30T20:57:00.158837,4184632,-1480,-148,-457,-1607,-424,3,348,360,50
32,1,2022-09-30T20:57:00.164553,4184637,-1480,-148,-457,-1607,-424,3,348,360,50
33,1,2022-09-30T20:57:00.171108,4184644,-1480,-148,-457,-1607,-424,3,348,360,50
34,1,2022-09-30T20:57:00.176722,4184650,-1475,-151,-458,-1647,-441,58,348,360,50
35,1,2022-09-30T20:57:00.184195,4184657,-1475,-151,-458,-1647,-441,58,348,360,50
36,1,2022-09-30T20:57:00.189725,4184663,-1475,-151,-458,-1647,-441,58,348,360,50
37,1,2022-09-30T20:57:00.203667,4184677,-1476,-158,-455,-1630,-413,62,348,360,50
38,1,2022-09-30T20:57:00.209354,4184682,-1476,-158,-455,-1630,-413,62,348,360,50
39,1,2022-09-30T20:57:00.214785,4184688,-1476,-158,-455,-1630,-413,62,348,360,50
40,1,2022-09-30T20:57:00.220794,4184693,-1476,-159,-451,-1563,-425,16,348,360,50
41,1,2022-09-30T20:57:00.226442,4184699,-1476,-159,-451,-1563,-425,16,348,360,50
42,1,2022-09-30T20:57:00.231862,4184706,-1476,-159,-451,-1563,-425,16,348,360,50
43,1,2022-09-30T20:57:00.239271,4184713,-1475,-159,-453,-1473,-482,-45,355,361,55
44,1,2022-09-30T20:57:00.247601,4184721,-1475,-159,-453,-1473,-482,-45,355,361,55
45,1,2022-09-30T20:57:00.252810,4184726,-1475,-159,-453,-1473,-482,-45,355,361,55
46,1,2022-09-30T20:57:00.259622,4184733,-1477,-150,-446,-1447,-534,-123,355,361,55
47,1,2022-09-30T20:57:00.265636,4184738,-1477,-150,-446,-1447,-534,-123,355,361,55
48,1,2022-09-30T20:57:00.271263,4184744,-1477,-150,-446,-1447,-534,-123,355,361,55
49,1,2022-09-30T20:57:00.276702,4184751,-1477,-150,-446,-1447,-534,-123,355,361,55
50,1,2022-09-30T20:57:00.283141,4184757,-1477,-150,-446,-1447,-534,-123,355,361,55
51,1,2022-09-30T20:57:00.288704,4184762,-1477,-150,-446,-1447,-534,-123,355,361,55
52,1,2022-09-30T20:57:00.294919,4184768,-1477,-150,-446,-1447,-534,-123,355,361,55
53,1,2022-09-30T20:57:00.302449,4184775,-1478,-151,-442,-1431,-521,-4,355,361,55
54,1,2022-09-30T20:57:00.308235,4184781,-1478,-151,-442,-1431,-521,-4,355,361,55
55,1,2022-09-30T20:57:00.313538,4184786,-1478,-151,-442,-1431,-521,-4,355,361,55
56,1,2022-09-30T20:57:00.319928,4184793,-1474,-145,-440,-1417,-514,51,355,361,55
57,1,2022-09-30T20:57:00.325653,4184799,-1474,-145,-440,-1417,-514,51,355,361,55
58,1,2022-09-30T20:57:00.331210,4184804,-1474,-145,-440,-1417,-514,51,355,361,55
59,1,2022-09-30T20:57:00.336583,4184810,-1482,-139,-433,-1418,-475,40,355,361,55
60,1,2022-09-30T20:57:00.345147,4184818,-1482,-139,-433,-1418,-475,40,355,361,55
61,1,2022-09-30T20:57:00.350413,4184823,-1482,-139,-433,-1418,-475,40,355,361,55
62,1,2022-09-30T20:57:00.355757,4184829,-1482,-139,-433,-1418,-475,40,355,361,55
63,1,2022-09-30T20:57:00.362375,4184836,-1468,-131,-436,-1386,-480,31,355,361,55
64,1,2022-09-30T20:57:00.368620,4184841,-1468,-131,-436,-1386,-480,31,355,361,55
65,1,2022-09-30T20:57:00.374184,4184848,-1468,-131,-436,-1386,-480,31,355,361,55
66,1,2022-09-30T20:57:00.380529,4184854,-1463,-129,-425,-1392,-464,-12,353,353,45
67,1,2022-09-30T20:57:00.390555,4184862,-1463,-129,-425,-1392,-464,-12,353,353,45
68,1,2022-09-30T20:57:00.398660,4184871,-1464,-132,-434,-1451,-431,-98,353,353,45
69,1,2022-09-30T20:57:00.408762,4184882,-1464,-132,-434,-1451,-431,-98,353,353,45
70,1,2022-09-30T20:57:00.415744,4184889,-1464,-132,-434,-1451,-431,-98,353,353,45
71,1,2022-09-30T20:57:00.424482,4184897,-1457,-142,-422,-1507,-414,-180,353,353,45
72,1,2022-09-30T20:57:00.432294,4184905,-1457,-142,-422,-1507,-414,-180,353,353,45
73,1,2022-09-30T20:57:00.440393,4184913,-1464,-153,-426,-1563,-296,-321,353,353,45
74,1,2022-09-30T20:57:00.449202,4184923,-1464,-153,-426,-1563,-296,-321,353,353,45
75,1,2022-09-30T20:57:00.455633,4184929,-1464,-153,-426,-1563,-296,-321,353,353,45
76,1,2022-09-30T20:57:00.462849,4184936,-1481,-176,-427,-1555,-250,-389,353,353,45
77,1,2022-09-30T20:57:00.470360,4184942,-1481,-176,-427,-1555,-250,-389,353,353,45
78,1,2022-09-30T20:57:00.476715,4184950,-1465,-179,-425,-1447,-360,-333,353,353,45
79,1,2022-09-30T20:57:00.485794,4184960,-1465,-179,-425,-1447,-360,-333,353,353,45
80,1,2022-09-30T20:57:00.492148,4184965,-1465,-179,-425,-1447,-360,-333,353,353,45
81,1,2022-09-30T20:57:00.498635,4184972,-1464,-174,-423,-1416,-306,-381,350,356,52
82,1,2022-09-30T20:57:00.504722,4184978,-1464,-174,-423,-1416,-306,-381,350,356,52
83,1,2022-09-30T20:57:00.510645,4184984,-1464,-174,-423,-1416,-306,-381,350,356,52
84,1,2022-09-30T20:57:00.517137,4184990,-1464,-174,-423,-1416,-306,-381,350,356,52
85,1,2022-09-30T20:57:00.523704,4184996,-1456,-179,-422,-1349,-267,-336,350,356,52
86,1,2022-09-30T20:57:00.529422,4185003,-1456,-179,-422,-1349,-267,-336,350,356,52
87,1,2022-09-30T20:57:00.535622,4185009,-1456,-179,-422,-1349,-267,-336,350,356,52
88,1,2022-09-30T20:57:00.543841,4185017,-1456,-173,-427,-1310,-180,-300,350,356,52
89,1,2022-09-30T20:57:00.549963,4185023,-1456,-173,-427,-1310,-180,-300,350,356,52
90,1,2022-09-30T20:57:00.555967,4185029,-1456,-173,-427,-1310,-180,-300,350,356,52
91,1,2022-09-30T20:57:00.562241,4185035,-1466,-176,-433,-1275,-33,-246,350,356,52
92,1,2022-09-30T20:57:00.568245,4185041,-1466,-176,-433,-1275,-33,-246,350,356,52
93,1,2022-09-30T20:57:00.574278,4185048,-1466,-176,-433,-1275,-33,-246,350,356,52
94,1,2022-09-30T20:57:00.580450,4185054,-1467,-174,-439,-1227,60,-195,350,356,52
95,1,2022-09-30T20:57:00.587010,4185060,-1467,-174,-439,-1227,60,-195,350,356,52
96,1,2022-09-30T20:57:00.592955,4185066,-1467,-174,-439,-1227,60,-195,350,356,52
97,1,2022-09-30T20:57:00.598833,4185072,-1464,-166,-441,-1216,100,-213,350,356,52
98,1,2022-09-30T20:57:00.604886,4185078,-1464,-166,-441,-1216,100,-213,350,356,52
99,1,2022-09-30T20:57:00.610321,4185083,-1464,-166,-441,-1216,100,-213,350,356,52
100,1,2022-09-30T20:57:00.615964,4185090,-1464,-166,-441,-1216,100,-213,350,356,52
101,1,2022-09-30T20:57:00.623880,4185098,-1463,-143,-448,-1281,107,-257,347,363,59
102,1,2022-09-30T20:57:00.628934,4185102,-1463,-143,-448,-1281,107,-257,347,363,59
103,1,2022-09-30T20:57:00.634503,4185108,-1463,-143,-448,-1281,107,-257,347,363,59
104,1,2022-09-30T20:57:00.642603,4185115,-1470,-130,-453,-1401,137,-230,347,363,59
105,1,2022-09-30T20:57:00.649135,4185122,-1470,-130,-453,-1401,137,-230,347,363,59
106,1,2022-09-30T20:57:00.655334,4185128,-1470,-130,-453,-1401,137,-230,347,363,59
107,1,2022-09-30T20:57:00.660750,4185134,-1478,-144,-459,-1504,161,-160,347,363,59
108,1,2022-09-30T20:57:00.666818,4185140,-1478,-144,-459,-1504,161,-160,347,363,59
109,1,2022-09-30T20:57:00.672690,4185146,-1478,-144,-459,-1504,161,-160,347,363,59
110,1,2022-09-30T20:57:00.678435,4185151,-1460,-176,-470,-1396,129,-84,347,363,59
111,1,2022-09-30T20:57:00.683484,4185157,-1460,-176,-470,-1396,129,-84,347,363,59
112,1,2022-09-30T20:57:00.688536,4185162,-1460,-176,-470,-1396,129,-84,347,363,59
113,1,2022-09-30T20:57:00.694531,4185167,-1460,-176,-470,-1396,129,-84,347,363,59
114,1,2022-09-30T20:57:00.699648,4185172,-1459,-175,-475,-1143,214,-200,347,363,59
115,1,2022-09-30T20:57:00.705072,4185179,-1459,-175,-475,-1143,214,-200,347,363,59
116,1,2022-09-30T20:57:00.710038,4185184,-1459,-175,-475,-1143,214,-200,347,363,59
117,1,2022-09-30T20:57:00.715466,4185189,-1459,-175,-475,-1143,214,-200,347,363,59
118,1,2022-09-30T20:57:00.721083,4185194,-1482,-158,-471,-897,271,-370,347,363,59
119,1,2022-09-30T20:57:00.726416,4185199,-1482,-158,-471,-897,271,-370,347,363,59
120,1,2022-09-30T20:57:00.731684,4185205,-1482,-158,-471,-897,271,-370,347,363,59
121,1,2022-09-30T20:57:00.736771,4185210,-1473,-155,-469,-613,155,-371,347,363,59
122,1,2022-09-30T20:57:00.742727,4185216,-1473,-155,-469,-613,155,-371,351,363,55
123,1,2022-09-30T20:57:00.748356,4185222,-1473,-155,-469,-613,155,-371,351,363,55
124,1,2022-09-30T20:57:00.753646,4185227,-1473,-155,-469,-613,155,-371,351,363,55
125,1,2022-09-30T20:57:00.760966,4185234,-1476,-180,-465,-313,116,-422,351,363,55
126,1,2022-09-30T20:57:00.768077,4185241,-1476,-180,-465,-313,116,-422,351,363,55
127,1,2022-09-30T20:57:00.773363,4185247,-1476,-180,-465,-313,116,-422,351,363,55
128,1,2022-09-30T20:57:00.779753,4185253,-1455,-204,-461,39,62,-555,351,363,55
129,1,2022-09-30T20:57:00.785783,4185260,-1455,-204,-461,39,62,-555,351,363,55
130,1,2022-09-30T20:57:00.791989,4185265,-1455,-204,-461,39,62,-555,351,363,55
131,1,2022-09-30T20:57:00.797710,4185271,-1468,-191,-455,324,86,-824,351,363,55
132,1,2022-09-30T20:57:00.806027,4185279,-1468,-191,-455,324,86,-824,351,363,55
133,1,2022-09-30T20:57:00.811287,4185285,-1468,-191,-455,324,86,-824,351,363,55
134,1,2022-09-30T20:57:00.817171,4185290,-1468,-191,-455,324,86,-824,351,363,55
135,1,2022-09-30T20:57:00.824847,4185298,-1464,-161,-455,363,-33,-1047,351,363,55
136,1,2022-09-30T20:57:00.830092,4185304,-1464,-161,-455,363,-33,-1047,351,363,55
137,1,2022-09-30T20:57:00.835404,4185309,-1464,-161,-455,363,-33,-1047,351,363,55
138,1,2022-09-30T20:57:00.842035,4185315,-1481,-148,-441,169,-93,-1102,351,363,55
139,1,2022-09-30T20:57:00.847550,4185321,-1481,-148,-441,169,-93,-1102,351,363,55
140,1,2022-09-30T20:57:00.852754,4185326,-1481,-148,-441,169,-93,-1102,351,363,55
141,1,2022-09-30T20:57:00.859298,4185332,-1465,-174,-442,-44,-221,-856,351,363,55
142,1,2022-09-30T20:57:00.864817,4185338,-1465,-174,-442,-44,-221,-856,351,363,55
143,1,2022-09-30T20:57:00.870526,4185344,-1465,-174,-442,-44,-221,-856,351,363,55
144,1,2022-09-30T20:57:00.875707,4185350,-1465,-174,-442,-44,-221,-856,351,363,55
145,1,2022-09-30T20:57:00.881906,4185356,-1440,-195,-445,-436,-298,-776,347,357,57
146,1,2022-09-30T20:57:00.888478,4185362,-1440,-195,-445,-436,-298,-776,347,357,57
147,1,2022-09-30T20:57:00.895584,4185367,-1440,-195,-445,-436,-298,-776,347,357,57
148,1,2022-09-30T20:57:00.900416,4185374,-1450,-191,-447,-875,-173,-949,347,357,57
149,1,2022-09-30T20:57:00.905843,4185379,-1450,-191,-447,-875,-173,-949,347,357,57
150,1,2022-09-30T20:57:00.910815,4185384,-1450,-191,-447,-875,-173,-949,347,357,57
151,1,2022-09-30T20:57:00.916663,4185390,-1450,-191,-447,-875,-173,-949,347,357,57
152,1,2022-09-30T20:57:00.922196,4185396,-1451,-207,-447,-1090,-142,-875,347,357,57
153,1,2022-09-30T20:57:00.927510,4185401,-1451,-207,-447,-1090,-142,-875,347,357,57
154,1,2022-09-30T20:57:00.933065,4185406,-1451,-207,-447,-1090,-142,-875,347,357,57
155,1,2022-09-30T20:57:00.939597,4185413,-1451,-209,-446,-1153,-102,-778,347,357,57
156,1,2022-09-30T20:57:00.946659,4185420,-1451,-209,-446,-1153,-102,-778,347,357,57
157,1,2022-09-30T20:57:00.951613,4185425,-1451,-209,-446,-1153,-102,-778,347,357,57
158,1,2022-09-30T20:57:00.956802,4185431,-1450,-215,-440,-1051,-113,-716,347,357,57
159,1,2022-09-30T20:57:00.963964,4185438,-1450,-215,-440,-1051,-113,-716,347,357,57
160,1,2022-09-30T20:57:00.969803,4185443,-1450,-215,-440,-1051,-113,-716,347,357,57
161,1,2022-09-30T20:57:00.974998,4185449,-1450,-215,-440,-1051,-113,-716,347,357,57
162,1,2022-09-30T20:57:00.980542,4185454,-1465,-213,-442,-984,42,-857,347,357,57
163,1,2022-09-30T20:57:00.986079,4185459,-1465,-213,-442,-984,42,-857,347,357,57
164,1,2022-09-30T20:57:00.992313,4185465,-1465,-213,-442,-984,42,-857,347,357,57
165,1,2022-09-30T20:57:00.997948,4185472,-1420,-237,-447,-800,-65,-586,346,354,52
166,1,2022-09-30T20:57:01.004167,4185477,-1420,-237,-447,-800,-65,-586,346,354,52
167,1,2022-09-30T20:57:01.009244,4185483,-1420,-237,-447,-800,-65,-586,346,354,52
168,1,2022-09-30T20:57:01.014985,4185488,-1420,-237,-447,-800,-65,-586,346,354,52
169,1,2022-09-30T20:57:01.021583,4185494,-1438,-224,-444,-905,106,-756,346,354,52
170,1,2022-09-30T20:57:01.027995,4185500,-1438,-224,-444,-905,106,-756,346,354,52
171,1,2022-09-30T20:57:01.034066,4185507,-1438,-224,-444,-905,106,-756,346,354,52
172,1,2022-09-30T20:57:01.039541,4185512,-1434,-217,-449,-792,108,-688,346,354,52
173,1,2022-09-30T20:57:01.045597,4185519,-1434,-217,-449,-792,108,-688,346,354,52
174,1,2022-09-30T20:57:01.051616,4185525,-1434,-217,-449,-792,108,-688,346,354,52
175,1,2022-09-30T20:57:01.057238,4185531,-1430,-226,-456,-662,96,-721,346,354,52
176,1,2022-09-30T20:57:01.062509,4185536,-1430,-226,-456,-662,96,-721,346,354,52
177,1,2022-09-30T20:57:01.068884,4185541,-1430,-226,-456,-662,96,-721,346,354,52
178,1,2022-09-30T20:57:01.074562,4185548,-1430,-226,-456,-662,96,-721,346,354,52
179,1,2022-09-30T20:57:01.080510,4185553,-1445,-245,-455,-581,20,-866,346,354,52
180,1,2022-09-30T20:57:01.085964,4185560,-1445,-245,-455,-581,20,-866,346,354,52
181,1,2022-09-30T20:57:01.092341,4185566,-1445,-245,-455,-581,20,-866,346,354,52
182,1,2022-09-30T20:57:01.098218,4185572,-1446,-220,-457,-568,-128,-1013,346,354,52
183,1,2022-09-30T20:57:01.107406,4185581,-1446,-220,-457,-568,-128,-1013,346,354,52
184,1,2022-09-30T20:57:01.112837,4185586,-1446,-220,-457,-568,-128,-1013,346,354,52
185,1,2022-09-30T20:57:01.118691,4185591,-1448,-222,-451,-590,-152,-849,352,360,64
186,1,2022-09-30T20:57:01.124788,4185597,-1448,-222,-451,-590,-152,-849,352,360,64
187,1,2022-09-30T20:57:01.129965,4185604,-1448,-222,-451,-590,-152,-849,352,360,64
188,1,2022-09-30T20:57:01.135282,4185609,-1448,-222,-451,-590,-152,-849,352,360,64
189,1,2022-09-30T20:57:01.143102,4185616,-1453,-226,-446,-657,-216,-608,352,360,64
190,1,2022-09-30T20:57:01.149147,4185622,-1453,-226,-446,-657,-216,-608,352,360,64
191,1,2022-09-30T20:57:01.155232,4185628,-1453,-226,-446,-657,-216,-608,352,360,64
192,1,2022-09-30T20:57:01.160461,4185633,-1444,-229,-446,-712,-329,-442,352,360,64
193,1,2022-09-30T20:57:01.166977,4185639,-1444,-229,-446,-712,-329,-442,352,360,64
194,1,2022-09-30T20:57:01.172925,4185647,-1444,-229,-446,-712,-329,-442,352,360,64
195,1,2022-09-30T20:57:01.180343,4185654,-1447,-242,-438,-802,-367,-391,352,360,64
196,1,2022-09-30T20:57:01.185955,4185659,-1447,-242,-438,-802,-367,-391,352,360,64
197,1,2022-09-30T20:57:01.191635,4185664,-1447,-242,-438,-802,-367,-391,352,360,64
198,1,2022-09-30T20:57:01.197224,4185670,-1443,-236,-430,-907,-397,-350,352,360,64
199,1,2022-09-30T20:57:01.202483,4185675,-1443,-236,-430,-907,-397,-350,352,360,64
200,1,2022-09-30T20:57:01.207558,4185680,-1443,-236,-430,-907,-397,-350,352,360,64
201,1,2022-09-30T20:57:01.213972,4185687,-1443,-236,-430,-907,-397,-350,352,360,64
202,1,2022-09-30T20:57:01.219216,4185693,-1430,-219,-426,-1019,-381,-199,352,360,64
203,1,2022-09-30T20:57:01.228202,4185702,-1430,-219,-426,-1019,-381,-199,352,360,64
204,1,2022-09-30T20:57:01.233698,4185707,-1430,-219,-426,-1019,-381,-199,352,360,64
205,1,2022-09-30T20:57:01.239284,4185712,-1430,-210,-417,-1100,-306,2,350,358,60
206,1,2022-09-30T20:57:01.245049,4185718,-1430,-210,-417,-1100,-306,2,350,358,60
207,1,2022-09-30T20:57:01.250554,4185723,-1430,-210,-417,-1100,-306,2,350,358,60
208,1,2022-09-30T20:57:01.255643,4185730,-1430,-210,-417,-1100,-306,2,350,358,60
209,1,2022-09-30T20:57:01.260716,4185735,-1427,-224,-418,-1162,-282,136,350,358,60
210,1,2022-09-30T20:57:01.265815,4185739,-1427,-224,-418,-1162,-282,136,350,358,60
211,1,2022-09-30T20:57:01.271796,4185745,-1427,-224,-418,-1162,-282,136,350,358,60
212,1,2022-09-30T20:57:01.276748,4185750,-1419,-224,-422,-1206,-252,117,350,358,60
213,1,2022-09-30T20:57:01.282875,4185755,-1419,-224,-422,-1206,-252,117,350,358,60
214,1,2022-09-30T20:57:01.287680,4185761,-1419,-224,-422,-1206,-252,117,350,358,60
215,1,2022-09-30T20:57:01.293358,4185766,-1419,-224,-422,-1206,-252,117,350,358,60
216,1,2022-09-30T20:57:01.300478,4185774,-1437,-211,-420,-1240,-173,17,350,358,60
217,1,2022-09-30T20:57:01.307275,4185781,-1437,-211,-420,-1240,-173,17,350,358,60
218,1,2022-09-30T20:57:01.312250,4185786,-1437,-211,-420,-1240,-173,17,350,358,60
219,1,2022-09-30T20:57:01.317632,4185791,-1448,-202,-411,-1300,-252,-28,350,358,60
220,1,2022-09-30T20:57:01.325356,4185798,-1448,-202,-411,-1300,-252,-28,350,358,60
221,1,2022-09-30T20:57:01.330301,4185804,-1448,-202,-411,-1300,-252,-28,350,358,60
222,1,2022-09-30T20:57:01.335289,4185809,-1448,-202,-411,-1300,-252,-28,350,358,60
223,1,2022-09-30T20:57:01.342364,4185816,-1442,-224,-417,-1358,-328,79,350,358,60
224,1,2022-09-30T20:57:01.349748,4185823,-1442,-224,-417,-1358,-328,79,350,358,60
225,1,2022-09-30T20:57:01.355159,4185829,-1442,-224,-417,-1358,-328,79,350,358,60
226,1,2022-09-30T20:57:01.360385,4185834,-1426,-249,-421,-1365,-332,133,350,358,60
227,1,2022-09-30T20:57:01.367748,4185840,-1426,-249,-421,-1365,-332,133,350,358,60
228,1,2022-09-30T20:57:01.372680,4185846,-1426,-249,-421,-1365,-332,133,350,358,60
229,1,2022-09-30T20:57:01.378756,4185852,-1418,-255,-420,-1390,-292,33,352,358,60
230,1,2022-09-30T20:57:01.384129,4185858,-1418,-255,-420,-1390,-292,33,352,358,60
231,1,2022-09-30T20:57:01.389322,4185863,-1418,-255,-420,-1390,-292,33,352,358,60
232,1,2022-09-30T20:57:01.395307,4185869,-1418,-255,-420,-1390,-292,33,352,358,60
233,1,2022-09-30T20:57:01.402040,4185876,-1421,-265,-422,-1331,-218,-93,352,358,60
234,1,2022-09-30T20:57:01.412488,4185885,-1421,-265,-422,-1331,-218,-93,352,358,60
235,1,2022-09-30T20:57:01.426019,4185890,-1428,-259,-416,-1231,-145,-248,352,358,60
236,1,2022-09-30T20:57:01.436369,4185909,-1428,-259,-416,-1231,-145,-248,352,358,60
237,1,2022-09-30T20:57:01.451025,4185924,-1452,-230,-412,-1203,-96,-321,352,358,60
238,1,2022-09-30T20:57:01.461232,4185932,-1439,-211,-412,-1227,-160,-84,352,358,60
239,1,2022-09-30T20:57:01.475609,4185948,-1439,-211,-412,-1227,-160,-84,352,358,60
240,1,2022-09-30T20:57:01.484216,4185957,-1427,-224,-425,-1336,-82,151,352,358,60
241,1,2022-09-30T20:57:01.493467,4185964,-1427,-224,-425,-1336,-82,151,352,358,60
242,1,2022-09-30T20:57:01.499207,4185972,-1416,-228,-430,-1399,66,230,344,354,54
243,1,2022-09-30T20:57:01.508400,4185982,-1416,-228,-430,-1399,66,230,344,354,54
244,1,2022-09-30T20:57:01.513707,4185987,-1416,-228,-430,-1399,66,230,344,354,54
245,1,2022-09-30T20:57:01.521460,4185995,-1432,-200,-439,-1431,236,138,344,354,54
246,1,2022-09-30T20:57:01.526688,4186000,-1432,-200,-439,-1431,236,138,344,354,54
247,1,2022-09-30T20:57:01.531683,4186005,-1432,-200,-439,-1431,236,138,344,354,54
248,1,2022-09-30T20:57:01.536657,4186010,-1447,-191,-443,-1402,238,96,344,354,54
249,1,2022-09-30T20:57:01.544584,4186016,-1447,-191,-443,-1402,238,96,344,354,54
250,1,2022-09-30T20:57:01.551485,4186024,-1447,-191,-443,-1402,238,96,344,354,54
251,1,2022-09-30T20:57:01.557101,4186031,-1451,-184,-448,-1397,128,59,344,354,54
252,1,2022-09-30T20:57:01.562674,4186036,-1451,-184,-448,-1397,128,59,344,354,54
253,1,2022-09-30T20:57:01.568753,4186042,-1451,-184,-448,-1397,128,59,344,354,54
254,1,2022-09-30T20:57:01.574117,4186048,-1451,-184,-448,-1397,128,59,344,354,54
255,1,2022-09-30T20:57:01.580438,4186054,-1456,-186,-448,-1467,-47,-27,344,354,54
256,1,2022-09-30T20:57:01.585960,4186059,-1456,-186,-448,-1467,-47,-27,344,354,54
257,1,2022-09-30T20:57:01.592166,4186065,-1456,-186,-448,-1467,-47,-27,344,354,54
258,1,2022-09-30T20:57:01.598225,4186072,-1442,-211,-458,-1535,-245,-26,344,354,54
259,1,2022-09-30T20:57:01.605257,4186079,-1442,-211,-458,-1535,-245,-26,344,354,54
260,1,2022-09-30T20:57:01.610250,4186084,-1442,-211,-458,-1535,-245,-26,344,354,54
261,1,2022-09-30T20:57:01.616303,4186089,-1442,-211,-458,-1535,-245,-26,344,354,54
262,1,2022-09-30T20:57:01.624825,4186098,-1440,-245,-459,-1566,-313,-84,339,355,49
263,1,2022-09-30T20:57:01.629739,4186103,-1440,-245,-459,-1566,-313,-84,339,355,49
264,1,2022-09-30T20:57:01.634759,4186108,-1440,-245,-459,-1566,-313,-84,339,355,49
265,1,2022-09-30T20:57:01.641385,4186115,-1444,-252,-456,-1572,-297,-236,339,355,49
266,1,2022-09-30T20:57:01.649529,4186123,-1444,-252,-456,-1572,-297,-236,339,355,49
267,1,2022-09-30T20:57:01.654813,4186128,-1444,-252,-456,-1572,-297,-236,339,355,49
268,1,2022-09-30T20:57:01.661267,4186135,-1440,-241,-439,-1497,-337,-255,339,355,49
269,1,2022-09-30T20:57:01.668381,4186141,-1440,-241,-439,-1497,-337,-255,339,355,49
270,1,2022-09-30T20:57:01.673598,4186147,-1440,-241,-439,-1497,-337,-255,339,355,49
271,1,2022-09-30T20:57:01.679873,4186153,-1440,-241,-439,-1497,-337,-255,339,355,49
272,1,2022-09-30T20:57:01.685304,4186159,-1440,-241,-439,-1497,-337,-255,339,355,49
273,1,2022-09-30T20:57:01.690938,4186165,-1440,-241,-439,-1497,-337,-255,339,355,49
274,1,2022-09-30T20:57:01.697083,4186171,-1430,-235,-448,-1436,-371,-146,339,355,49
275,1,2022-09-30T20:57:01.702930,4186176,-1430,-235,-448,-1436,-371,-146,339,355,49
276,1,2022-09-30T20:57:01.708159,4186182,-1430,-235,-448,-1436,-371,-146,339,355,49
277,1,2022-09-30T20:57:01.713268,4186187,-1430,-235,-448,-1436,-371,-146,339,355,49
278,1,2022-09-30T20:57:01.720691,4186193,-1435,-238,-445,-1475,-335,-98,339,355,49
279,1,2022-09-30T20:57:01.726191,4186200,-1435,-238,-445,-1475,-335,-98,339,355,49
280,1,2022-09-30T20:57:01.731228,4186205,-1435,-238,-445,-1475,-335,-98,339,355,49
281,1,2022-09-30T20:57:01.736405,4186210,-1435,-238,-445,-1475,-335,-98,339,355,49
282,1,2022-09-30T20:57:01.743233,4186216,-1441,-240,-444,-1520,-324,-70,348,354,60
283,1,2022-09-30T20:57:01.748628,4186222,-1441,-240,-444,-1520,-324,-70,348,354,60
284,1,2022-09-30T20:57:01.753879,4186227,-1441,-240,-444,-1520,-324,-70,348,354,60
285,1,2022-09-30T20:57:01.760588,4186234,-1446,-235,-440,-1548,-327,-83,348,354,60
286,1,2022-09-30T20:57:01.767624,4186241,-1446,-235,-440,-1548,-327,-83,348,354,60
287,1,2022-09-30T20:57:01.772678,4186247,-1446,-235,-440,-1548,-327,-83,348,354,60
288,1,2022-09-30T20:57:01.777845,4186252,-1443,-236,-438,-1540,-397,-60,348,354,60
289,1,2022-09-30T20:57:01.784844,4186259,-1443,-236,-438,-1540,-397,-60,348,354,60
290,1,2022-09-30T20:57:01.790260,4186264,-1443,-236,-438,-1540,-397,-60,348,354,60
291,1,2022-09-30T20:57:01.796041,4186269,-1443,-236,-438,-1540,-397,-60,348,354,60
292,1,2022-09-30T20:57:01.802769,4186276,-1431,-229,-447,-1484,-484,2,348,354,60
293,1,2022-09-30T20:57:01.809242,4186283,-1431,-229,-447,-1484,-484,2,348,354,60
294,1,2022-09-30T20:57:01.814576,4186289,-1431,-229,-447,-1484,-484,2,348,354,60
295,1,2022-09-30T20:57:01.822316,4186296,-1431,-226,-442,-1520,-418,15,348,354,60
296,1,2022-09-30T20:57:01.829257,4186303,-1431,-226,-442,-1520,-418,15,348,354,60
297,1,2022-09-30T20:57:01.834270,4186308,-1431,-226,-442,-1520,-418,15,348,354,60
298,1,2022-09-30T20:57:01.840777,4186314,-1429,-220,-441,-1566,-375,37,348,354,60
299,1,2022-09-30T20:57:01.847539,4186321,-1429,-220,-441,-1566,-375,37,348,354,60
300,1,2022-09-30T20:57:01.853666,4186328,-1429,-220,-441,-1566,-375,37,348,354,60
301,1,2022-09-30T20:57:01.860179,4186334,-1417,-231,-451,-1604,-407,16,348,354,60
302,1,2022-09-30T20:57:01.866874,4186340,-1417,-231,-451,-1604,-407,16,348,354,60
303,1,2022-09-30T20:57:01.873326,4186347,-1417,-231,-451,-1604,-407,16,348,354,60
304,1,2022-09-30T20:57:01.880381,4186353,-1418,-236,-450,-1645,-359,-116,343,347,53
305,1,2022-09-30T20:57:01.886596,4186360,-1418,-236,-450,-1645,-359,-116,343,347,53
306,1,2022-09-30T20:57:01.892252,4186365,-1418,-236,-450,-1645,-359,-116,343,347,53
307,1,2022-09-30T20:57:01.898368,4186372,-1454,-225,-448,-1701,-222,-292,343,347,53
308,1,2022-09-30T20:57:01.905399,4186379,-1454,-225,-448,-1701,-222,-292,343,347,53
309,1,2022-09-30T20:57:01.910349,4186384,-1454,-225,-448,-1701,-222,-292,343,347,53
310,1,2022-09-30T20:57:01.916473,4186389,-1454,-225,-448,-1701,-222,-292,343,347,53
311,1,2022-09-30T20:57:01.925627,4186399,-1460,-229,-448,-1682,-338,-231,343,347,53
312,1,2022-09-30T20:57:01.932236,4186405,-1460,-229,-448,-1682,-338,-231,343,347,53
313,1,2022-09-30T20:57:01.937640,4186411,-1444,-235,-459,-1643,-514,-128,343,347,53
314,1,2022-09-30T20:57:01.945689,4186419,-1444,-235,-459,-1643,-514,-128,343,347,53
315,1,2022-09-30T20:57:01.951041,4186425,-1444,-235,-459,-1643,-514,-128,343,347,53
316,1,2022-09-30T20:57:01.956120,4186430,-1444,-235,-459,-1643,-514,-128,343,347,53
317,1,2022-09-30T20:57:01.962509,4186436,-1431,-243,-455,-1642,-520,-123,343,347,53
318,1,2022-09-30T20:57:01.968445,4186441,-1431,-243,-455,-1642,-520,-123,343,347,53
319,1,2022-09-30T20:57:01.974822,4186448,-1431,-243,-455,-1642,-520,-123,343,347,53
320,1,2022-09-30T20:57:01.982508,4186456,-1434,-235,-453,-1647,-479,-75,343,347,53
321,1,2022-09-30T20:57:01.990960,4186463,-1434,-235,-453,-1647,-479,-75,343,347,53
322,1,2022-09-30T20:57:01.998376,4186472,-1440,-238,-439,-1634,-451,13,341,349,55
323,1,2022-09-30T20:57:02.006019,4186479,-1440,-238,-439,-1634,-451,13,341,349,55
324,1,2022-09-30T20:57:02.011015,4186485,-1440,-238,-439,-1634,-451,13,341,349,55
325,1,2022-09-30T20:57:02.017942,4186490,-1440,-238,-439,-1634,-451,13,341,349,55
326,1,2022-09-30T20:57:02.023040,4186497,-1438,-246,-439,-1609,-456,14,341,349,55
327,1,2022-09-30T20:57:02.028420,4186502,-1438,-246,-439,-1609,-456,14,341,349,55
328,1,2022-09-30T20:57:02.033948,4186508,-1438,-246,-439,-1609,-456,14,341,349,55
329,1,2022-09-30T20:57:02.040658,4186514,-1425,-247,-441,-1575,-462,-14,341,349,55
330,1,2022-09-30T20:57:02.047299,4186520,-1425,-247,-441,-1575,-462,-14,341,349,55
331,1,2022-09-30T20:57:02.052544,4186526,-1425,-247,-441,-1575,-462,-14,341,349,55
332,1,2022-09-30T20:57:02.057429,4186531,-1440,-246,-434,-1576,-446,-40,341,349,55
333,1,2022-09-30T20:57:02.065698,4186539,-1440,-246,-434,-1576,-446,-40,341,349,55
334,1,2022-09-30T20:57:02.071959,4186546,-1440,-246,-434,-1576,-446,-40,341,349,55
335,1,2022-09-30T20:57:02.077164,4186551,-1436,-231,-435,-1553,-541,42,341,349,55
336,1,2022-09-30T20:57:02.084394,4186558,-1436,-231,-435,-1553,-541,42,341,349,55
337,1,2022-09-30T20:57:02.089549,4186563,-1436,-231,-435,-1553,-541,42,341,349,55
338,1,2022-09-30T20:57:02.095341,4186568,-1436,-231,-435,-1553,-541,42,341,349,55
339,1,2022-09-30T20:57:02.101822,4186575,-1437,-227,-425,-1583,-530,72,341,349,55
340,1,2022-09-30T20:57:02.107969,4186582,-1437,-227,-425,-1583,-530,72,341,349,55
341,1,2022-09-30T20:57:02.113114,4186587,-1437,-227,-425,-1583,-530,72,341,349,55
342,1,2022-09-30T20:57:02.118664,4186592,-1427,-215,-420,-1564,-540,148,352,360,58
343,1,2022-09-30T20:57:02.126882,4186601,-1427,-215,-420,-1564,-540,148,352,360,58
344,1,2022-09-30T20:57:02.131993,4186606,-1427,-215,-420,-1564,-540,148,352,360,58
345,1,2022-09-30T20:57:02.137252,4186610,-1423,-222,-426,-1535,-481,190,352,360,58
346,1,2022-09-30T20:57:02.145691,4186618,-1423,-222,-426,-1535,-481,190,352,360,58
347,1,2022-09-30T20:57:02.151432,4186625,-1423,-222,-426,-1535,-481,190,352,360,58
348,1,2022-09-30T20:57:02.156941,4186631,-1423,-222,-426,-1535,-481,190,352,360,58
349,1,2022-09-30T20:57:02.163553,4186637,-1427,-233,-426,-1536,-351,111,352,360,58
350,1,2022-09-30T20:57:02.170590,4186643,-1427,-233,-426,-1536,-351,111,352,360,58
351,1,2022-09-30T20:57:02.176258,4186650,-1427,-233,-426,-1536,-351,111,352,360,58
352,1,2022-09-30T20:57:02.182417,4186656,-1424,-236,-427,-1525,-226,20,352,360,58
353,1,2022-09-30T20:57:02.188783,4186662,-1424,-236,-427,-1525,-226,20,352,360,58
354,1,2022-09-30T20:57:02.194274,4186668,-1424,-236,-427,-1525,-226,20,352,360,58
355,1,2022-09-30T20:57:02.201063,4186675,-1434,-232,-428,-1483,-126,-62,352,360,58
356,1,2022-09-30T20:57:02.207391,4186681,-1434,-232,-428,-1483,-126,-62,352,360,58
357,1,2022-09-30T20:57:02.212638,4186686,-1434,-232,-428,-1483,-126,-62,352,360,58
358,1,2022-09-30T20:57:02.219057,4186692,-1438,-219,-437,-1434,-103,-99,352,360,58
359,1,2022-09-30T20:57:02.227651,4186701,-1438,-219,-437,-1434,-103,-99,352,360,58
360,1,2022-09-30T20:57:02.232777,4186706,-1438,-219,-437,-1434,-103,-99,352,360,58
361,1,2022-09-30T20:57:02.237968,4186712,-1432,-218,-437,-1404,-114,-61,351,349,57
362,1,2022-09-30T20:57:02.246636,4186720,-1432,-218,-437,-1404,-114,-61,351,349,57
363,1,2022-09-30T20:57:02.251601,4186725,-1432,-218,-437,-1404,-114,-61,351,349,57
364,1,2022-09-30T20:57:02.256806,4186730,-1432,-218,-437,-1404,-114,-61,351,349,57
365,1,2022-09-30T20:57:02.263930,4186738,-1430,-234,-439,-1423,-121,-84,351,349,57
366,1,2022-09-30T20:57:02.270821,4186744,-1430,-234,-439,-1423,-121,-84,351,349,57
367,1,2022-09-30T20:57:02.276626,4186749,-1430,-234,-439,-1423,-121,-84,351,349,57
368,1,2022-09-30T20:57:02.283763,4186758,-1443,-236,-445,-1456,-141,-135,351,349,57
369,1,2022-09-30T20:57:02.290721,4186764,-1443,-236,-445,-1456,-141,-135,351,349,57
370,1,2022-09-30T20:57:02.296168,4186769,-1443,-236,-445,-1456,-141,-135,351,349,57
371,1,2022-09-30T20:57:02.302538,4186776,-1447,-237,-447,-1458,-194,-96,351,349,57
372,1,2022-09-30T20:57:02.309258,4186782,-1447,-237,-447,-1458,-194,-96,351,349,57
373,1,2022-09-30T20:57:02.314232,4186788,-1447,-237,-447,-1458,-194,-96,351,349,57
374,1,2022-09-30T20:57:02.321367,4186795,-1438,-235,-445,-1427,-248,-12,351,349,57
375,1,2022-09-30T20:57:02.327809,4186802,-1438,-235,-445,-1427,-248,-12,351,349,57
376,1,2022-09-30T20:57:02.332922,4186807,-1438,-235,-445,-1427,-248,-12,351,349,57
377,1,2022-09-30T20:57:02.337930,4186812,-1434,-225,-457,-1427,-288,-2,351,349,57
378,1,2022-09-30T20:57:02.346141,4186819,-1434,-225,-457,-1427,-288,-2,351,349,57
379,1,2022-09-30T20:57:02.351354,4186825,-1434,-225,-457,-1427,-288,-2,351,349,57
380,1,2022-09-30T20:57:02.356500,4186830,-1434,-225,-457,-1427,-288,-2,351,349,57
381,1,2022-09-30T20:57:02.362611,4186836,-1440,-215,-445,-1452,-295,-27,351,349,57
382,1,2022-09-30T20:57:02.369540,4186843,-1440,-215,-445,-1452,-295,-27,351,349,57
383,1,2022-09-30T20:57:02.375008,4186849,-1440,-215,-445,-1452,-295,-27,351,349,57
384,1,2022-09-30T20:57:02.381332,4186855,-1448,-211,-442,-1489,-302,-27,347,355,59
385,1,2022-09-30T20:57:02.388677,4186861,-1448,-211,-442,-1489,-302,-27,347,355,59
386,1,2022-09-30T20:57:02.395050,4186868,-1448,-211,-442,-1489,-302,-27,347,355,59
387,1,2022-09-30T20:57:02.401378,4186875,-1443,-238,-440,-1480,-366,36,347,355,59
388,1,2022-09-30T20:57:02.407508,4186882,-1443,-238,-440,-1480,-366,36,347,355,59
389,1,2022-09-30T20:57:02.412947,4186887,-1443,-238,-440,-1480,-366,36,347,355,59
390,1,2022-09-30T20:57:02.418698,4186892,-1433,-248,-441,-1429,-408,-30,347,355,59
391,1,2022-09-30T20:57:02.426856,4186900,-1433,-248,-441,-1429,-408,-30,347,355,59
392,1,2022-09-30T20:57:02.432110,4186906,-1433,-248,-441,-1429,-408,-30,347,355,59
393,1,2022-09-30T20:57:02.436961,4186911,-1428,-228,-446,-1406,-365,-149,347,355,59
394,1,2022-09-30T20:57:02.445740,4186918,-1428,-228,-446,-1406,-365,-149,347,355,59
395,1,2022-09-30T20:57:02.451002,4186925,-1428,-228,-446,-1406,-365,-149,347,355,59
396,1,2022-09-30T20:57:02.455946,4186930,-1428,-228,-446,-1406,-365,-149,347,355,59
397,1,2022-09-30T20:57:02.461068,4186935,-1429,-225,-446,-1404,-293,-145,347,355,59
398,1,2022-09-30T20:57:02.468012,4186941,-1429,-225,-446,-1404,-293,-145,347,355,59
399,1,2022-09-30T20:57:02.473764,4186947,-1429,-225,-446,-1404,-293,-145,347,355,59
400,1,2022-09-30T20:57:02.478678,4186952,-1433,-229,-448,-1412,-274,-93,347,355,59
401,1,2022-09-30T20:57:02.486620,4186960,-1433,-229,-448,-1412,-274,-93,347,355,59
402,1,2022-09-30T20:57:02.492789,4186966,-1433,-229,-448,-1412,-274,-93,347,355,59
403,1,2022-09-30T20:57:02.498713,4186972,-1445,-228,-432,-1409,-237,-41,350,360,56
404,1,2022-09-30T20:57:02.505994,4186980,-1445,-228,-432,-1409,-237,-41,350,360,56
405,1,2022-09-30T20:57:02.511203,4186985,-1445,-228,-432,-1409,-237,-41,350,360,56
406,1,2022-09-30T20:57:02.516818,4186990,-1445,-228,-432,-1409,-237,-41,350,360,56
407,1,2022-09-30T20:57:02.525420,4186999,-1449,-234,-429,-1401,-251,19,350,360,56
408,1,2022-09-30T20:57:02.531619,4187005,-1449,-234,-429,-1401,-251,19,350,360,56
409,1,2022-09-30T20:57:02.536757,4187011,-1449,-234,-429,-1401,-251,19,350,360,56
410,1,2022-09-30T20:57:02.543833,4187017,-1447,-231,-428,-1419,-311,39,350,360,56
411,1,2022-09-30T20:57:02.551073,4187024,-1447,-231,-428,-1419,-311,39,350,360,56
412,1,2022-09-30T20:57:02.556870,4187030,-1447,-231,-428,-1419,-311,39,350,360,56
413,1,2022-09-30T20:57:02.568939,4187040,-1424,-233,-436,-1465,-326,22,350,360,56
414,1,2022-09-30T20:57:02.575535,4187049,-1424,-233,-436,-1465,-326,22,350,360,56
415,1,2022-09-30T20:57:02.581169,4187054,-1410,-233,-442,-1483,-216,-15,350,360,56
416,1,2022-09-30T20:57:02.588749,4187063,-1410,-233,-442,-1483,-216,-15,350,360,56
417,1,2022-09-30T20:57:02.594510,4187068,-1410,-233,-442,-1483,-216,-15,350,360,56
418,1,2022-09-30T20:57:02.600077,4187074,-1426,-230,-448,-1477,-24,-100,350,360,56
419,1,2022-09-30T20:57:02.606311,4187080,-1426,-230,-448,-1477,-24,-100,350,360,56
420,1,2022-09-30T20:57:02.611725,4187085,-1426,-230,-448,-1477,-24,-100,350,360,56
421,1,2022-09-30T20:57:02.617795,4187090,-1426,-230,-448,-1477,-24,-100,350,360,56
422,1,2022-09-30T20:57:02.625015,4187099,-1437,-236,-450,-1385,18,-99,349,359,57
423,1,2022-09-30T20:57:02.631695,4187105,-1437,-236,-450,-1385,18,-99,349,359,57
424,1,2022-09-30T20:57:02.637084,4187111,-1437,-236,-450,-1385,18,-99,349,359,57
425,1,2022-09-30T20:57:02.644195,4187117,-1459,-227,-459,-1279,-50,-80,349,359,57
426,1,2022-09-30T20:57:02.650959,4187124,-1459,-227,-459,-1279,-50,-80,349,359,57
427,1,2022-09-30T20:57:02.656271,4187129,-1459,-227,-459,-1279,-50,-80,349,359,57
428,1,2022-09-30T20:57:02.662442,4187137,-1465,-209,-462,-1275,-127,11,349,359,57
429,1,2022-09-30T20:57:02.669346,4187143,-1465,-209,-462,-1275,-127,11,349,359,57
430,1,2022-09-30T20:57:02.674234,4187148,-1465,-209,-462,-1275,-127,11,349,359,57
431,1,2022-09-30T20:57:02.680192,4187154,-1450,-189,-463,-1360,-248,183,349,359,57
432,1,2022-09-30T20:57:02.686369,4187160,-1450,-189,-463,-1360,-248,183,349,359,57
433,1,2022-09-30T20:57:02.692617,4187166,-1450,-189,-463,-1360,-248,183,349,359,57
434,1,2022-09-30T20:57:02.697920,4187171,-1445,-186,-457,-1495,-340,318,349,359,57
435,1,2022-09-30T20:57:02.706485,4187180,-1445,-186,-457,-1495,-340,318,349,359,57
436,1,2022-09-30T20:57:02.712216,4187186,-1445,-186,-457,-1495,-340,318,349,359,57
437,1,2022-09-30T20:57:02.718550,4187192,-1455,-181,-451,-1588,-409,317,349,359,57
438,1,2022-09-30T20:57:02.724467,4187197,-1455,-181,-451,-1588,-409,317,349,359,57
439,1,2022-09-30T20:57:02.730401,4187203,-1455,-181,-451,-1588,-409,317,349,359,57
440,1,2022-09-30T20:57:02.735873,4187209,-1455,-181,-451,-1588,-409,317,349,359,57
441,1,2022-09-30T20:57:02.742291,4187214,-1455,-204,-439,-1617,-572,231,334,356,50
442,1,2022-09-30T20:57:02.749333,4187223,-1455,-204,-439,-1617,-572,231,334,356,50
443,1,2022-09-30T20:57:02.754665,4187228,-1455,-204,-439,-1617,-572,231,334,356,50
444,1,2022-09-30T20:57:02.760155,4187234,-1450,-232,-443,-1615,-642,-14,334,356,50
445,1,2022-09-30T20:57:02.766953,4187240,-1450,-232,-443,-1615,-642,-14,334,356,50
446,1,2022-09-30T20:57:02.772028,4187246,-1450,-232,-443,-1615,-642,-14,334,356,50
447,1,2022-09-30T20:57:02.777052,4187251,-1430,-259,-445,-1504,-675,-176,334,356,50
448,1,2022-09-30T20:57:02.784135,4187258,-1430,-259,-445,-1504,-675,-176,334,356,50
449,1,2022-09-30T20:57:02.789268,4187262,-1430,-259,-445,-1504,-675,-176,334,356,50
450,1,2022-09-30T20:57:02.794362,4187268,-1430,-259,-445,-1504,-675,-176,334,356,50
451,1,2022-09-30T20:57:02.800438,4187274,-1413,-252,-437,-1379,-622,-274,334,356,50
452,1,2022-09-30T20:57:02.806788,4187280,-1413,-252,-437,-1379,-622,-274,334,356,50
453,1,2022-09-30T20:57:02.811967,4187286,-1413,-252,-437,-1379,-622,-274,334,356,50
454,1,2022-09-30T20:57:02.817158,4187291,-1413,-252,-437,-1379,-622,-274,334,356,50
455,1,2022-09-30T20:57:02.823684,4187297,-1436,-230,-435,-1314,-474,-323,334,356,50
456,1,2022-09-30T20:57:02.829535,4187302,-1436,-230,-435,-1314,-474,-323,334,356,50
457,1,2022-09-30T20:57:02.835060,4187309,-1436,-230,-435,-1314,-474,-323,334,356,50
458,1,2022-09-30T20:57:02.842344,4187316,-1455,-211,-427,-1288,-429,-179,334,356,50
459,1,2022-09-30T20:57:02.850670,4187324,-1455,-211,-427,-1288,-429,-179,334,356,50
460,1,2022-09-30T20:57:02.856681,4187330,-1455,-211,-427,-1288,-429,-179,334,356,50
461,1,2022-09-30T20:57:02.862193,4187335,-1447,-209,-426,-1295,-487,40,334,356,50
462,1,2022-09-30T20:57:02.868947,4187342,-1447,-209,-426,-1295,-487,40,334,356,50
463,1,2022-09-30T20:57:02.874407,4187347,-1447,-209,-426,-1295,-487,40,334,356,50
464,1,2022-09-30T20:57:02.884377,4187355,-1422,-208,-429,-1386,-500,143,334,356,50
465,1,2022-09-30T20:57:02.897867,4187371,-1420,-218,-434,-1519,-335,62,334,356,50
466,1,2022-09-30T20:57:02.908940,4187382,-1420,-218,-434,-1519,-335,62,334,356,50
467,1,2022-09-30T20:57:02.915006,4187387,-1420,-218,-434,-1519,-335,62,334,356,50
468,1,2022-09-30T20:57:02.927553,4187400,-1431,-234,-436,-1583,-172,-10,334,356,50
469,1,2022-09-30T20:57:02.936608,4187410,-1431,-234,-436,-1583,-172,-10,334,356,50
470,1,2022-09-30T20:57:02.945563,4187417,-1434,-249,-436,-1470,-132,17,334,356,50
471,1,2022-09-30T20:57:02.954499,4187427,-1434,-249,-436,-1470,-132,17,334,356,50
472,1,2022-09-30T20:57:02.960824,4187435,-1439,-250,-440,-1343,-131,-29,334,356,50
473,1,2022-09-30T20:57:02.969526,4187442,-1439,-250,-440,-1343,-131,-29,334,356,50
474,1,2022-09-30T20:57:02.977763,4187451,-1430,-246,-440,-1238,-168,-21,334,356,50
475,1,2022-09-30T20:57:02.986459,4187460,-1430,-246,-440,-1238,-168,-21,334,356,50
476,1,2022-09-30T20:57:02.992284,4187465,-1430,-246,-440,-1238,-168,-21,334,356,50
477,1,2022-09-30T20:57:03.000640,4187473,-1430,-236,-442,-1245,-132,-13,344,364,58
478,1,2022-09-30T20:57:03.009216,4187483,-1430,-236,-442,-1245,-132,-13,344,364,58
479,1,2022-09-30T20:57:03.014350,4187488,-1430,-236,-442,-1245,-132,-13,344,364,58
480,1,2022-09-30T20:57:03.021601,4187494,-1448,-228,-443,-1328,-85,-50,344,364,58
481,1,2022-09-30T20:57:03.032196,4187505,-1448,-228,-443,-1328,-85,-50,344,364,58
482,1,2022-09-30T20:57:03.037816,4187511,-1447,-212,-441,-1424,-106,15,344,364,58
483,1,2022-09-30T20:57:03.048854,4187522,-1447,-212,-441,-1424,-106,15,344,364,58
484,1,2022-09-30T20:57:03.055016,4187529,-1447,-212,-441,-1424,-106,15,344,364,58
485,1,2022-09-30T20:57:03.061189,4187535,-1459,-240,-435,-1435,-94,364,344,364,58
486,1,2022-09-30T20:57:03.067528,4187541,-1459,-240,-435,-1435,-94,364,344,364,58
487,1,2022-09-30T20:57:03.074272,4187546,-1459,-240,-435,-1435,-94,364,344,364,58
488,1,2022-09-30T20:57:03.081163,4187554,-1446,-245,-446,-1346,-174,859,344,364,58
489,1,2022-09-30T20:57:03.089443,4187564,-1446,-245,-446,-1346,-174,859,344,364,58
490,1,2022-09-30T20:57:03.096011,4187569,-1446,-245,-446,-1346,-174,859,344,364,58
491,1,2022-09-30T20:57:03.103904,4187578,-1446,-239,-449,-1256,-187,1120,344,364,58
492,1,2022-09-30T20:57:03.109219,4187583,-1446,-239,-449,-1256,-187,1120,344,364,58
493,1,2022-09-30T20:57:03.114676,4187588,-1446,-239,-449,-1256,-187,1120,344,364,58
494,1,2022-09-30T20:57:03.121026,4187594,-1439,-226,-450,-1252,-149,1064,343,357,63
495,1,2022-09-30T20:57:03.130039,4187603,-1439,-226,-450,-1252,-149,1064,343,357,63
496,1,2022-09-30T20:57:03.135346,4187609,-1439,-226,-450,-1252,-149,1064,343,357,63
497,1,2022-09-30T20:57:03.142478,4187616,-1439,-170,-454,-1377,-16,909,343,357,63
498,1,2022-09-30T20:57:03.152967,4187626,-1439,-170,-454,-1377,-16,909,343,357,63
499,1,2022-09-30T20:57:03.158556,4187632,-1514,-174,-444,-1582,149,1637,343,357,63
500,1,2022-09-30T20:57:03.167299,4187640,-1514,-174,-444,-1582,149,1637,343,357,63
501,1,2022-09-30T20:57:03.175401,4187649,-1514,-174,-444,-1582,149,1637,343,357,63
502,1,2022-09-30T20:57:03.182308,4187656,-1513,-228,-436,-1516,20,3359,343,357,63
503,1,2022-09-30T20:57:03.187609,4187661,-1513,-228,-436,-1516,20,3359,343,357,63
504,1,2022-09-30T20:57:03.193955,4187667,-1513,-228,-436,-1516,20,3359,343,357,63
505,1,2022-09-30T20:57:03.199841,4187673,-1490,-222,-434,-1510,-225,4308,343,357,63
506,1,2022-09-30T20:57:03.208033,4187681,-1490,-222,-434,-1510,-225,4308,343,357,63
507,1,2022-09-30T20:57:03.213748,4187687,-1490,-222,-434,-1510,-225,4308,343,357,63
508,1,2022-09-30T20:57:03.219230,4187693,-1459,-197,-452,-1570,-323,4279,343,357,63
509,1,2022-09-30T20:57:03.229181,4187703,-1459,-197,-452,-1570,-323,4279,343,357,63
510,1,2022-09-30T20:57:03.234294,4187708,-1459,-197,-452,-1570,-323,4279,343,357,63
511,1,2022-09-30T20:57:03.239472,4187713,-1423,-137,-457,-1538,-323,3756,335,363,57
512,1,2022-09-30T20:57:03.251936,4187725,-1423,-137,-457,-1538,-323,3756,335,363,57
513,1,2022-09-30T20:57:03.257047,4187730,-1423,-137,-457,-1538,-323,3756,335,363,57
514,1,2022-09-30T20:57:03.263292,4187737,-1473,-47,-464,-1557,35,3270,335,363,57
515,1,2022-09-30T20:57:03.270373,4187744,-1473,-47,-464,-1557,35,3270,335,363,57
516,1,2022-09-30T20:57:03.276653,4187750,-1473,-47,-464,-1557,35,3270,335,363,57
517,1,2022-09-30T20:57:03.284166,4187758,-1578,-122,-438,-1377,422,4388,335,363,57
518,1,2022-09-30T20:57:03.289673,4187763,-1578,-122,-438,-1377,422,4388,335,363,57
519,1,2022-09-30T20:57:03.295720,4187768,-1578,-122,-438,-1377,422,4388,335,363,57
520,1,2022-09-30T20:57:03.304500,4187779,-1650,-203,-415,-1049,240,6292,335,363,57
521,1,2022-09-30T20:57:03.310644,4187785,-1650,-203,-415,-1049,240,6292,335,363,57
522,1,2022-09-30T20:57:03.316925,4187790,-1650,-203,-415,-1049,240,6292,335,363,57
523,1,2022-09-30T20:57:03.328060,4187802,-1472,-98,-459,-826,-755,7072,335,363,57
524,1,2022-09-30T20:57:03.334372,4187808,-1472,-98,-459,-826,-755,7072,335,363,57
525,1,2022-09-30T20:57:03.339325,4187813,-1501,10,-459,-1223,-287,5910,335,363,57
526,1,2022-09-30T20:57:03.352804,4187826,-1501,10,-459,-1223,-287,5910,335,363,57
527,1,2022-09-30T20:57:03.358891,4187833,-1533,194,-468,-1433,-167,6006,313,373,57
528,1,2022-09-30T20:57:03.366867,4187840,-1533,194,-468,-1433,-167,6006,313,373,57
529,1,2022-09-30T20:57:03.373668,4187847,-1533,194,-468,-1433,-167,6006,313,373,57
530,1,2022-09-30T20:57:03.379008,4187852,-1705,102,-446,-1011,17,8693,313,373,57
531,1,2022-09-30T20:57:03.386536,4187860,-1705,102,-446,-1011,17,8693,313,373,57
532,1,2022-09-30T20:57:03.393319,4187866,-1705,102,-446,-1011,17,8693,313,373,57
533,1,2022-09-30T20:57:03.399877,4187873,-1642,106,-445,-95,-471,12172,313,373,57
534,1,2022-09-30T20:57:03.408451,4187882,-1642,106,-445,-95,-471,12172,313,373,57
535,1,2022-09-30T20:57:03.413822,4187887,-1642,106,-445,-95,-471,12172,313,373,57
536,1,2022-09-30T20:57:03.421066,4187892,-1669,213,-446,461,-98,14569,313,373,57
537,1,2022-09-30T20:57:03.430211,4187904,-1669,213,-446,461,-98,14569,313,373,57
538,1,2022-09-30T20:57:03.435326,4187909,-1669,213,-446,461,-98,14569,313,373,57
539,1,2022-09-30T20:57:03.442429,4187916,-1520,227,-447,1548,-590,18533,313,373,57
540,1,2022-09-30T20:57:03.452226,4187926,-1520,227,-447,1548,-590,18533,313,373,57
541,1,2022-09-30T20:57:03.457529,4187931,-1520,227,-447,1548,-590,18533,313,373,57
542,1,2022-09-30T20:57:03.462802,4187936,-1476,329,-436,2145,-546,20943,313,373,57
543,1,2022-09-30T20:57:03.469843,4187943,-1476,329,-436,2145,-546,20943,313,373,57
544,1,2022-09-30T20:57:03.476971,4187951,-1476,329,-436,2145,-546,20943,313,373,57
545,1,2022-09-30T20:57:03.483296,4187957,-1636,457,-429,2575,-108,22547,313,373,57
546,1,2022-09-30T20:57:03.490921,4187965,-1636,457,-429,2575,-108,22547,313,373,57
547,1,2022-09-30T20:57:03.498120,4187971,-1636,457,-429,2575,-108,22547,313,373,57
548,1,2022-09-30T20:57:03.504777,4187978,-1677,569,-433,3071,-840,23323,249,389,55
549,1,2022-09-30T20:57:03.510497,4187983,-1677,569,-433,3071,-840,23323,249,389,55
550,1,2022-09-30T20:57:03.516504,4187990,-1677,569,-433,3071,-840,23323,249,389,55
551,1,2022-09-30T20:57:03.525576,4187999,-1614,757,-472,3115,-1327,22109,249,389,55
552,1,2022-09-30T20:57:03.532858,4188007,-1614,757,-472,3115,-1327,22109,249,389,55
553,1,2022-09-30T20:57:03.538059,4188012,-1592,913,-418,2612,-983,18673,249,389,55
554,1,2022-09-30T20:57:03.547068,4188019,-1592,913,-418,2612,-983,18673,249,389,55
555,1,2022-09-30T20:57:03.552417,4188026,-1592,913,-418,2612,-983,18673,249,389,55
556,1,2022-09-30T20:57:03.557829,4188032,-1263,1029,-555,2077,-1222,14820,249,389,55
557,1,2022-09-30T20:57:03.564857,4188039,-1263,1029,-555,2077,-1222,14820,249,389,55
558,1,2022-09-30T20:57:03.570829,4188044,-1263,1029,-555,2077,-1222,14820,249,389,55
559,1,2022-09-30T20:57:03.576887,4188050,-1263,1029,-555,2077,-1222,14820,249,389,55
560,1,2022-09-30T20:57:03.584772,4188058,-1399,1168,-505,1210,-1297,11223,249,389,55
561,1,2022-09-30T20:57:03.590155,4188063,-1399,1168,-505,1210,-1297,11223,249,389,55
562,1,2022-09-30T20:57:03.598586,4188070,-1399,1168,-505,1210,-1297,11223,249,389,55
563,1,2022-09-30T20:57:03.608540,4188083,-1485,1228,-462,429,-302,7619,249,389,55
564,1,2022-09-30T20:57:03.615515,4188089,-1485,1228,-462,429,-302,7619,249,389,55
565,1,2022-09-30T20:57:03.624449,4188098,-1560,1284,-420,-252,437,4889,174,380,66
566,1,2022-09-30T20:57:03.632323,4188106,-1560,1284,-420,-252,437,4889,174,380,66
567,1,2022-09-30T20:57:03.637764,4188111,-1656,1306,-401,-727,178,2930,174,380,66
568,1,2022-09-30T20:57:03.648198,4188119,-1656,1306,-401,-727,178,2930,174,380,66
569,1,2022-09-30T20:57:03.654628,4188128,-1656,1306,-401,-727,178,2930,174,380,66
570,1,2022-09-30T20:57:03.660058,4188134,-1626,1248,-410,-1149,-976,1416,174,380,66
571,1,2022-09-30T20:57:03.667540,4188140,-1626,1248,-410,-1149,-976,1416,174,380,66
572,1,2022-09-30T20:57:03.674424,4188147,-1626,1248,-410,-1149,-976,1416,174,380,66
573,1,2022-09-30T20:57:03.679988,4188153,-1602,1171,-418,-1434,-1487,-459,174,380,66
574,1,2022-09-30T20:57:03.687351,4188162,-1602,1171,-418,-1434,-1487,-459,174,380,66
575,1,2022-09-30T20:57:03.693473,4188167,-1602,1171,-418,-1434,-1487,-459,174,380,66
576,1,2022-09-30T20:57:03.700613,4188174,-1617,1103,-412,-1394,-1612,-2497,174,380,66
577,1,2022-09-30T20:57:03.708985,4188183,-1617,1103,-412,-1394,-1612,-2497,174,380,66
578,1,2022-09-30T20:57:03.714221,4188188,-1617,1103,-412,-1394,-1612,-2497,174,380,66
579,1,2022-09-30T20:57:03.719984,4188193,-1599,1073,-392,-1070,-1812,-4265,174,380,66
580,1,2022-09-30T20:57:03.728683,4188203,-1599,1073,-392,-1070,-1812,-4265,174,380,66
581,1,2022-09-30T20:57:03.733828,4188208,-1599,1073,-392,-1070,-1812,-4265,174,380,66
582,1,2022-09-30T20:57:03.738738,4188213,-1667,1137,-384,-891,-1977,-6073,179,381,65
583,1,2022-09-30T20:57:03.748575,4188221,-1667,1137,-384,-891,-1977,-6073,179,381,65
584,1,2022-09-30T20:57:03.754063,4188228,-1667,1137,-384,-891,-1977,-6073,179,381,65
585,1,2022-09-30T20:57:03.759386,4188233,-1655,1215,-392,-875,-2208,-6776,179,381,65
586,1,2022-09-30T20:57:03.768156,4188240,-1655,1215,-392,-875,-2208,-6776,179,381,65
587,1,2022-09-30T20:57:03.776447,4188250,-1655,1215,-392,-875,-2208,-6776,179,381,65
588,1,2022-09-30T20:57:03.783609,4188257,-1602,1197,-380,-790,-2175,-5959,179,381,65
589,1,2022-09-30T20:57:03.789004,4188263,-1602,1197,-380,-790,-2175,-5959,179,381,65
590,1,2022-09-30T20:57:03.794677,4188268,-1602,1197,-380,-790,-2175,-5959,179,381,65
591,1,2022-09-30T20:57:03.800979,4188274,-1525,1083,-396,-534,-2199,-4596,179,381,65
592,1,2022-09-30T20:57:03.806218,4188279,-1525,1083,-396,-534,-2199,-4596,179,381,65
593,1,2022-09-30T20:57:03.811701,4188285,-1525,1083,-396,-534,-2199,-4596,179,381,65
594,1,2022-09-30T20:57:03.817715,4188291,-1525,1083,-396,-534,-2199,-4596,179,381,65
595,1,2022-09-30T20:57:03.827426,4188301,-1578,1048,-388,-780,-1619,-4563,179,381,65
596,1,2022-09-30T20:57:03.834172,4188308,-1578,1048,-388,-780,-1619,-4563,179,381,65
597,1,2022-09-30T20:57:03.839406,4188313,-1620,1087,-368,-1306,-1068,-5073,179,381,65
598,1,2022-09-30T20:57:03.851453,4188325,-1620,1087,-368,-1306,-1068,-5073,179,381,65
599,1,2022-09-30T20:57:03.857623,4188332,-1620,1087,-368,-1306,-1068,-5073,179,381,65
600,1,2022-09-30T20:57:03.862885,4188337,-1626,1076,-368,-1725,-788,-4863,191,389,81
601,1,2022-09-30T20:57:03.869620,4188343,-1626,1076,-368,-1725,-788,-4863,191,389,81
602,1,2022-09-30T20:57:03.877596,4188351,-1626,1076,-368,-1725,-788,-4863,191,389,81
603,1,2022-09-30T20:57:03.886162,4188360,-1531,993,-371,-1608,-1009,-3401,191,389,81
604,1,2022-09-30T20:57:03.893200,4188366,-1531,993,-371,-1608,-1009,-3401,191,389,81
605,1,2022-09-30T20:57:03.899540,4188374,-1657,924,-372,-1745,-608,-2735,191,389,81
606,1,2022-09-30T20:57:03.908921,4188383,-1657,924,-372,-1745,-608,-2735,191,389,81
607,1,2022-09-30T20:57:03.914182,4188388,-1657,924,-372,-1745,-608,-2735,191,389,81
608,1,2022-09-30T20:57:03.920344,4188393,-1626,925,-361,-1533,-718,-2116,191,389,81
609,1,2022-09-30T20:57:03.932160,4188406,-1626,925,-361,-1533,-718,-2116,191,389,81
610,1,2022-09-30T20:57:03.937508,4188411,-1626,925,-361,-1533,-718,-2116,191,389,81
611,1,2022-09-30T20:57:03.944681,4188417,-1679,902,-357,-1722,-97,-2731,191,389,81
612,1,2022-09-30T20:57:03.954741,4188429,-1679,902,-357,-1722,-97,-2731,191,389,81
613,1,2022-09-30T20:57:03.959864,4188434,-1720,882,-363,-1764,-181,-2526,191,389,81
614,1,2022-09-30T20:57:03.968233,4188441,-1720,882,-363,-1764,-181,-2526,191,389,81
615,1,2022-09-30T20:57:03.974346,4188447,-1720,882,-363,-1764,-181,-2526,191,389,81
616,1,2022-09-30T20:57:03.982480,4188455,-1581,836,-388,-1570,-748,-1674,191,389,81
617,1,2022-09-30T20:57:03.989491,4188464,-1581,836,-388,-1570,-748,-1674,191,389,81
618,1,2022-09-30T20:57:03.995795,4188469,-1581,836,-388,-1570,-748,-1674,191,389,81
619,1,2022-09-30T20:57:04.002721,4188476,-1811,811,-385,-1870,-291,-2241,215,387,71
620,1,2022-09-30T20:57:04.010295,4188484,-1811,811,-385,-1870,-291,-2241,215,387,71
621,1,2022-09-30T20:57:04.015576,4188489,-1811,811,-385,-1870,-291,-2241,215,387,71
622,1,2022-09-30T20:57:04.024447,4188497,-1650,774,-382,-1243,-1568,-608,215,387,71
623,1,2022-09-30T20:57:04.032611,4188506,-1650,774,-382,-1243,-1568,-608,215,387,71
624,1,2022-09-30T20:57:04.038556,4188512,-1623,815,-392,-2018,-711,-2441,215,387,71
625,1,2022-09-30T20:57:04.050004,4188522,-1623,815,-392,-2018,-711,-2441,215,387,71
626,1,2022-09-30T20:57:04.055152,4188529,-1623,815,-392,-2018,-711,-2441,215,387,71
627,1,2022-09-30T20:57:04.060398,4188534,-1707,854,-361,-2498,-402,-3158,215,387,71
628,1,2022-09-30T20:57:04.070042,4188542,-1707,854,-361,-2498,-402,-3158,215,387,71
629,1,2022-09-30T20:57:04.076625,4188551,-1707,854,-361,-2498,-402,-3158,215,387,71
630,1,2022-09-30T20:57:04.083245,4188557,-1603,805,-367,-2278,-808,-1798,215,387,71
631,1,2022-09-30T20:57:04.088432,4188562,-1603,805,-367,-2278,-808,-1798,215,387,71
632,1,2022-09-30T20:57:04.094519,4188567,-1603,805,-367,-2278,-808,-1798,215,387,71
633,1,2022-09-30T20:57:04.100688,4188574,-1690,812,-368,-2511,-533,-1142,215,387,71
634,1,2022-09-30T20:57:04.108532,4188582,-1690,812,-368,-2511,-533,-1142,215,387,71
635,1,2022-09-30T20:57:04.113943,4188588,-1690,812,-368,-2511,-533,-1142,215,387,71
636,1,2022-09-30T20:57:04.119624,4188593,-1580,780,-381,-2465,-789,-318,216,380,72
637,1,2022-09-30T20:57:04.128994,4188603,-1580,780,-381,-2465,-789,-318,216,380,72
638,1,2022-09-30T20:57:04.134417,4188608,-1580,780,-381,-2465,-789,-318,216,380,72
639,1,2022-09-30T20:57:04.140395,4188614,-1700,786,-369,-3222,-103,-1083,216,380,72
640,1,2022-09-30T20:57:04.153161,4188626,-1700,786,-369,-3222,-103,-1083,216,380,72
641,1,2022-09-30T20:57:04.158317,4188632,-1655,811,-354,-3490,-415,-730,216,380,72
642,1,2022-09-30T20:57:04.166007,4188640,-1655,811,-354,-3490,-415,-730,216,380,72
643,1,2022-09-30T20:57:04.172333,4188646,-1655,811,-354,-3490,-415,-730,216,380,72
644,1,2022-09-30T20:57:04.178361,4188652,-1715,781,-347,-3612,-267,-665,216,380,72
645,1,2022-09-30T20:57:04.187021,4188660,-1715,781,-347,-3612,-267,-665,216,380,72
646,1,2022-09-30T20:57:04.193308,4188666,-1715,781,-347,-3612,-267,-665,216,380,72
647,1,2022-09-30T20:57:04.199606,4188674,-1676,778,-335,-3361,-830,-276,216,380,72
648,1,2022-09-30T20:57:04.208056,4188682,-1676,778,-335,-3361,-830,-276,216,380,72
649,1,2022-09-30T20:57:04.213527,4188687,-1676,778,-335,-3361,-830,-276,216,380,72
650,1,2022-09-30T20:57:04.219664,4188692,-1654,781,-335,-3192,-905,-364,216,380,72
651,1,2022-09-30T20:57:04.231026,4188704,-1654,781,-335,-3192,-905,-364,216,380,72
652,1,2022-09-30T20:57:04.236314,4188710,-1654,781,-335,-3192,-905,-364,216,380,72
653,1,2022-09-30T20:57:04.241736,4188716,-1602,786,-334,-3038,-1014,-363,223,385,79
654,1,2022-09-30T20:57:04.254237,4188728,-1602,786,-334,-3038,-1014,-363,223,385,79
655,1,2022-09-30T20:57:04.259319,4188733,-1625,792,-332,-2999,-1000,-425,223,385,79
656,1,2022-09-30T20:57:04.264430,4188738,-1625,792,-332,-2999,-1000,-425,223,385,79
657,1,2022-09-30T20:57:04.270574,4188743,-1625,792,-332,-2999,-1000,-425,223,385,79
658,1,2022-09-30T20:57:04.277377,4188751,-1625,792,-332,-2999,-1000,-425,223,385,79
659,1,2022-09-30T20:57:04.283441,4188758,-1590,800,-333,-3039,-889,-212,223,385,79
660,1,2022-09-30T20:57:04.288841,4188763,-1590,800,-333,-3039,-889,-212,223,385,79
661,1,2022-09-30T20:57:04.294562,4188768,-1590,800,-333,-3039,-889,-212,223,385,79
662,1,2022-09-30T20:57:04.302547,4188776,-1625,798,-332,-3209,-693,-81,223,385,79
663,1,2022-09-30T20:57:04.310623,4188784,-1625,798,-332,-3209,-693,-81,223,385,79
664,1,2022-09-30T20:57:04.315945,4188789,-1625,798,-332,-3209,-693,-81,223,385,79
665,1,2022-09-30T20:57:04.324895,4188797,-1654,803,-317,-3455,-495,-259,223,385,79
666,1,2022-09-30T20:57:04.332538,4188807,-1654,803,-317,-3455,-495,-259,223,385,79
667,1,2022-09-30T20:57:04.337701,4188812,-1654,803,-317,-3455,-495,-259,223,385,79
668,1,2022-09-30T20:57:04.344922,4188818,-1636,805,-298,-3569,-529,-302,223,385,79
669,1,2022-09-30T20:57:04.353413,4188827,-1636,805,-298,-3569,-529,-302,223,385,79
670,1,2022-09-30T20:57:04.359379,4188833,-1646,765,-294,-3657,-581,-347,222,378,78
671,1,2022-09-30T20:57:04.368297,4188841,-1646,765,-294,-3657,-581,-347,222,378,78
672,1,2022-09-30T20:57:04.376029,4188850,-1646,765,-294,-3657,-581,-347,222,378,78
673,1,2022-09-30T20:57:04.381261,4188855,-1613,725,-315,-3541,-735,-503,222,378,78
674,1,2022-09-30T20:57:04.389421,4188863,-1613,725,-315,-3541,-735,-503,222,378,78
675,1,2022-09-30T20:57:04.395979,4188868,-1613,725,-315,-3541,-735,-503,222,378,78
676,1,2022-09-30T20:57:04.402079,4188875,-1598,686,-317,-3356,-571,-1011,222,378,78
677,1,2022-09-30T20:57:04.410064,4188883,-1598,686,-317,-3356,-571,-1011,222,378,78
678,1,2022-09-30T20:57:04.415982,4188890,-1598,686,-317,-3356,-571,-1011,222,378,78
679,1,2022-09-30T20:57:04.422906,4188896,-1644,688,-300,-3008,-369,-1509,222,378,78
680,1,2022-09-30T20:57:04.431759,4188905,-1644,688,-300,-3008,-369,-1509,222,378,78
681,1,2022-09-30T20:57:04.437258,4188911,-1644,688,-300,-3008,-369,-1509,222,378,78
682,1,2022-09-30T20:57:04.445352,4188917,-1657,683,-288,-2553,-421,-1640,222,378,78
683,1,2022-09-30T20:57:04.453860,4188928,-1657,683,-288,-2553,-421,-1640,222,378,78
684,1,2022-09-30T20:57:04.459305,4188933,-1658,700,-287,-2189,-475,-1573,222,378,78
685,1,2022-09-30T20:57:04.467736,4188941,-1658,700,-287,-2189,-475,-1573,222,378,78
686,1,2022-09-30T20:57:04.475615,4188949,-1658,700,-287,-2189,-475,-1573,222,378,78
687,1,2022-09-30T20:57:04.481545,4188955,-1655,692,-293,-1859,-431,-1207,222,378,78
688,1,2022-09-30T20:57:04.488717,4188962,-1655,692,-293,-1859,-431,-1207,222,378,78
689,1,2022-09-30T20:57:04.494507,4188967,-1655,692,-293,-1859,-431,-1207,222,378,78
690,1,2022-09-30T20:57:04.501585,4188975,-1634,695,-296,-1618,-313,-769,229,381,81
691,1,2022-09-30T20:57:04.509512,4188984,-1634,695,-296,-1618,-313,-769,229,381,81
692,1,2022-09-30T20:57:04.514639,4188988,-1634,695,-296,-1618,-313,-769,229,381,81
693,1,2022-09-30T20:57:04.521163,4188994,-1650,704,-284,-1545,-196,-455,229,381,81
694,1,2022-09-30T20:57:04.533354,4189006,-1650,704,-284,-1545,-196,-455,229,381,81
695,1,2022-09-30T20:57:04.538751,4189012,-1660,695,-294,-1520,-249,-116,229,381,81
696,1,2022-09-30T20:57:04.553199,4189027,-1660,695,-294,-1520,-249,-116,229,381,81
697,1,2022-09-30T20:57:04.559767,4189033,-1629,682,-314,-1416,-309,202,229,381,81
698,1,2022-09-30T20:57:04.569661,4189041,-1629,682,-314,-1416,-309,202,229,381,81
699,1,2022-09-30T20:57:04.580983,4189054,-1626,687,-327,-1274,-100,211,229,381,81
700,1,2022-09-30T20:57:04.588276,4189063,-1626,687,-327,-1274,-100,211,229,381,81
701,1,2022-09-30T20:57:04.594659,4189068,-1626,687,-327,-1274,-100,211,229,381,81
702,1,2022-09-30T20:57:04.603407,4189077,-1621,698,-347,-1045,79,228,229,381,81
703,1,2022-09-30T20:57:04.610845,4189084,-1621,698,-347,-1045,79,228,229,381,81
704,1,2022-09-30T20:57:04.616012,4189089,-1621,698,-347,-1045,79,228,229,381,81
705,1,2022-09-30T20:57:04.626236,4189100,-1654,719,-341,-938,209,154,235,379,73
706,1,2022-09-30T20:57:04.633783,4189108,-1654,719,-341,-938,209,154,235,379,73
707,1,2022-09-30T20:57:04.639098,4189113,-1665,731,-334,-1010,104,6,235,379,73
708,1,2022-09-30T20:57:04.650451,4189124,-1665,731,-334,-1010,104,6,235,379,73
709,1,2022-09-30T20:57:04.656559,4189130,-1665,731,-334,-1010,104,6,235,379,73
710,1,2022-09-30T20:57:04.662957,4189136,-1659,752,-333,-1191,-164,-101,235,379,73
711,1,2022-09-30T20:57:04.671733,4189146,-1659,752,-333,-1191,-164,-101,235,379,73
712,1,2022-09-30T20:57:04.678299,4189152,-1635,760,-348,-1391,-355,-124,235,379,73
713,1,2022-09-30T20:57:04.685647,4189159,-1635,760,-348,-1391,-355,-124,235,379,73
714,1,2022-09-30T20:57:04.690996,4189165,-1635,760,-348,-1391,-355,-124,235,379,73
715,1,2022-09-30T20:57:04.698203,4189171,-1635,760,-348,-1391,-355,-124,235,379,73
716,1,2022-09-30T20:57:04.705224,4189179,-1614,763,-347,-1498,-335,4,235,379,73
717,1,2022-09-30T20:57:04.710645,4189185,-1614,763,-347,-1498,-335,4,235,379,73
718,1,2022-09-30T20:57:04.716287,4189190,-1614,763,-347,-1498,-335,4,235,379,73
719,1,2022-09-30T20:57:04.723550,4189197,-1661,769,-315,-1645,-135,78,235,379,73
720,1,2022-09-30T20:57:04.731413,4189205,-1661,769,-315,-1645,-135,78,235,379,73
721,1,2022-09-30T20:57:04.736978,4189210,-1661,769,-315,-1645,-135,78,235,379,73
722,1,2022-09-30T20:57:04.744362,4189217,-1649,771,-305,-1825,-288,288,233,383,83
723,1,2022-09-30T20:57:04.753888,4189228,-1649,771,-305,-1825,-288,288,233,383,83
724,1,2022-09-30T20:57:04.759194,4189233,-1614,745,-314,-1993,-415,452,233,383,83
725,1,2022-09-30T20:57:04.766285,4189240,-1614,745,-314,-1993,-415,452,233,383,83
726,1,2022-09-30T20:57:04.775384,4189248,-1614,745,-314,-1993,-415,452,233,383,83
727,1,2022-09-30T20:57:04.781754,4189255,-1597,720,-315,-2094,-281,423,233,383,83
728,1,2022-09-30T20:57:04.787119,4189260,-1597,720,-315,-2094,-281,423,233,383,83
729,1,2022-09-30T20:57:04.792431,4189266,-1597,720,-315,-2094,-281,423,233,383,83
730,1,2022-09-30T20:57:04.799789,4189274,-1605,700,-313,-2116,157,127,233,383,83
731,1,2022-09-30T20:57:04.808611,4189282,-1605,700,-313,-2116,157,127,233,383,83
732,1,2022-09-30T20:57:04.813357,4189287,-1605,700,-313,-2116,157,127,233,383,83
733,1,2022-09-30T20:57:04.819142,4189292,-1639,690,-307,-2052,463,-234,233,383,83
734,1,2022-09-30T20:57:04.831765,4189305,-1639,690,-307,-2052,463,-234,233,383,83
735,1,2022-09-30T20:57:04.836903,4189310,-1639,690,-307,-2052,463,-234,233,383,83
736,1,2022-09-30T20:57:04.844951,4189318,-1679,692,-299,-1984,437,-610,233,383,83
737,1,2022-09-30T20:57:04.855768,4189329,-1679,692,-299,-1984,437,-610,233,383,83
738,1,2022-09-30T20:57:04.862556,4189336,-1705,695,-308,-1964,122,-773,241,377,73
739,1,2022-09-30T20:57:04.879599,4189347,-1705,695,-308,-1964,122,-773,241,377,73
740,1,2022-09-30T20:57:04.887486,4189361,-1683,687,-320,-1882,-236,-749,241,377,73
741,1,2022-09-30T20:57:04.901478,4189373,-1645,677,-333,-1747,-393,-694,241,377,73
742,1,2022-09-30T20:57:04.914751,4189386,-1645,677,-333,-1747,-393,-694,241,377,73
743,1,2022-09-30T20:57:04.921508,4189394,-1651,680,-328,-1624,-327,-673,241,377,73
744,1,2022-09-30T20:57:04.932201,4189406,-1651,680,-328,-1624,-327,-673,241,377,73
745,1,2022-09-30T20:57:04.937363,4189411,-1651,680,-328,-1624,-327,-673,241,377,73
746,1,2022-09-30T20:57:04.946201,4189418,-1672,709,-306,-1517,-374,-549,241,377,73
747,1,2022-09-30T20:57:04.956364,4189430,-1672,709,-306,-1517,-374,-549,241,377,73
748,1,2022-09-30T20:57:04.961582,4189435,-1675,735,-294,-1505,-594,-258,241,377,73
749,1,2022-09-30T20:57:04.971299,4189445,-1675,735,-294,-1505,-594,-258,241,377,73
750,1,2022-09-30T20:57:04.977890,4189452,-1675,735,-294,-1505,-594,-258,241,377,73
751,1,2022-09-30T20:57:04.988345,4189462,-1652,751,-281,-1633,-814,98,241,377,73
752,1,2022-09-30T20:57:04.997513,4189469,-1652,751,-281,-1633,-814,98,241,377,73
753,1,2022-09-30T20:57:05.003175,4189476,-1634,751,-272,-1750,-865,455,235,371,65
754,1,2022-09-30T20:57:05.010171,4189484,-1634,751,-272,-1750,-865,455,235,371,65
755,1,2022-09-30T20:57:05.015885,4189490,-1634,751,-272,-1750,-865,455,235,371,65
756,1,2022-09-30T20:57:05.021666,4189496,-1633,736,-271,-1824,-785,682,235,371,65
757,1,2022-09-30T20:57:05.029961,4189503,-1633,736,-271,-1824,-785,682,235,371,65
758,1,2022-09-30T20:57:05.036222,4189510,-1633,736,-271,-1824,-785,682,235,371,65
759,1,2022-09-30T20:57:05.041706,4189515,-1627,734,-265,-1870,-792,756,235,371,65
760,1,2022-09-30T20:57:05.053885,4189528,-1627,734,-265,-1870,-792,756,235,371,65
761,1,2022-09-30T20:57:05.059443,4189533,-1627,725,-269,-1882,-811,652,235,371,65
762,1,2022-09-30T20:57:05.064923,4189539,-1627,725,-269,-1882,-811,652,235,371,65
763,1,2022-09-30T20:57:05.071270,4189544,-1627,725,-269,-1882,-811,652,235,371,65
764,1,2022-09-30T20:57:05.077172,4189551,-1627,725,-269,-1882,-811,652,235,371,65
765,1,2022-09-30T20:57:05.082616,4189556,-1612,698,-295,-1833,-734,456,235,371,65
766,1,2022-09-30T20:57:05.089747,4189563,-1612,698,-295,-1833,-734,456,235,371,65
767,1,2022-09-30T20:57:05.096682,4189569,-1612,698,-295,-1833,-734,456,235,371,65
768,1,2022-09-30T20:57:05.104096,4189578,-1591,667,-317,-1641,-380,-24,235,371,65
769,1,2022-09-30T20:57:05.111580,4189585,-1591,667,-317,-1641,-380,-24,235,371,65
770,1,2022-09-30T20:57:05.117321,4189591,-1591,667,-317,-1641,-380,-24,235,371,65
771,1,2022-09-30T20:57:05.124314,4189598,-1600,659,-325,-1377,94,-670,232,382,78
772,1,2022-09-30T20:57:05.132523,4189606,-1600,659,-325,-1377,94,-670,232,382,78
773,1,2022-09-30T20:57:05.138437,4189612,-1625,690,-326,-1159,420,-1229,232,382,78
774,1,2022-09-30T20:57:05.146518,4189619,-1625,690,-326,-1159,420,-1229,232,382,78
775,1,2022-09-30T20:57:05.152027,4189626,-1625,690,-326,-1159,420,-1229,232,382,78
776,1,2022-09-30T20:57:05.158485,4189632,-1652,709,-325,-998,557,-1389,232,382,78
777,1,2022-09-30T20:57:05.167189,4189640,-1652,709,-325,-998,557,-1389,232,382,78
778,1,2022-09-30T20:57:05.175015,4189648,-1652,709,-325,-998,557,-1389,232,382,78
779,1,2022-09-30T20:57:05.180741,4189654,-1657,717,-343,-834,571,-1191,232,382,78
780,1,2022-09-30T20:57:05.191816,4189666,-1657,717,-343,-834,571,-1191,232,382,78
781,1,2022-09-30T20:57:05.197954,4189672,-1657,717,-343,-834,571,-1191,232,382,78
782,1,2022-09-30T20:57:05.203289,4189677,-1665,723,-354,-704,579,-819,232,382,78
783,1,2022-09-30T20:57:05.208664,4189682,-1665,723,-354,-704,579,-819,232,382,78
784,1,2022-09-30T20:57:05.213775,4189687,-1665,723,-354,-704,579,-819,232,382,78
785,1,2022-09-30T20:57:05.219210,4189692,-1658,714,-369,-633,605,-449,232,382,78
786,1,2022-09-30T20:57:05.227119,4189701,-1658,714,-369,-633,605,-449,232,382,78
787,1,2022-09-30T20:57:05.232487,4189706,-1658,714,-369,-633,605,-449,232,382,78
788,1,2022-09-30T20:57:05.237698,4189712,-1658,714,-369,-633,605,-449,232,382,78
789,1,2022-09-30T20:57:05.245785,4189718,-1667,712,-381,-593,662,-222,246,378,74
790,1,2022-09-30T20:57:05.254270,4189728,-1667,712,-381,-593,662,-222,246,378,74
791,1,2022-09-30T20:57:05.259843,4189733,-1666,705,-388,-539,633,-39,246,378,74
792,1,2022-09-30T20:57:05.264800,4189739,-1666,705,-388,-539,633,-39,246,378,74
793,1,2022-09-30T20:57:05.271729,4189744,-1666,705,-388,-539,633,-39,246,378,74
794,1,2022-09-30T20:57:05.278438,4189752,-1661,702,-405,-480,554,15,246,378,74
795,1,2022-09-30T20:57:05.286558,4189761,-1661,702,-405,-480,554,15,246,378,74
796,1,2022-09-30T20:57:05.291896,4189765,-1661,702,-405,-480,554,15,246,378,74
797,1,2022-09-30T20:57:05.298555,4189771,-1661,702,-405,-480,554,15,246,378,74
798,1,2022-09-30T20:57:05.307404,4189782,-1661,702,-405,-480,554,15,246,378,74
799,1,2022-09-30T20:57:05.312745,4189787,-1661,702,-405,-480,554,15,246,378,74
800,1,2022-09-30T20:57:05.319700,4189792,-1661,702,-405,-480,554,15,246,378,74
801,1,2022-09-30T20:57:05.329557,4189803,-1648,683,-422,-368,355,-252,246,378,74
802,1,2022-09-30T20:57:05.336504,4189810,-1648,683,-422,-368,355,-252,246,378,74
803,1,2022-09-30T20:57:05.342882,4189816,-1666,669,-421,-292,363,-476,246,378,74
804,1,2022-09-30T20:57:05.354293,4189828,-1666,669,-421,-292,363,-476,246,378,74
805,1,2022-09-30T20:57:05.361639,4189835,-1666,669,-421,-292,363,-476,245,383,73
806,1,2022-09-30T20:57:05.369674,4189843,-1666,669,-421,-292,363,-476,245,383,73
807,1,2022-09-30T20:57:05.375788,4189849,-1666,669,-421,-292,363,-476,245,383,73
808,1,2022-09-30T20:57:05.380900,4189855,-1666,669,-421,-292,363,-476,245,383,73
809,1,2022-09-30T20:57:05.387528,4189861,-1666,669,-421,-292,363,-476,245,383,73
810,1,2022-09-30T20:57:05.392694,4189867,-1666,669,-421,-292,363,-476,245,383,73
811,1,2022-09-30T20:57:05.398968,4189873,-1665,656,-434,328,17,-579,245,383,73
812,1,2022-09-30T20:57:05.407919,4189882,-1665,656,-434,328,17,-579,245,383,73
813,1,2022-09-30T20:57:05.413298,4189887,-1665,656,-434,328,17,-579,245,383,73
814,1,2022-09-30T20:57:05.419149,4189892,-1663,660,-445,476,-68,-599,245,383,73
815,1,2022-09-30T20:57:05.429535,4189903,-1663,660,-445,476,-68,-599,245,383,73
816,1,2022-09-30T20:57:05.435133,4189908,-1663,660,-445,476,-68,-599,245,383,73
817,1,2022-09-30T20:57:05.440514,4189915,-1664,658,-443,585,-108,-565,245,383,73
818,1,2022-09-30T20:57:05.453085,4189927,-1664,658,-443,585,-108,-565,245,383,73
819,1,2022-09-30T20:57:05.458323,4189932,-1674,655,-436,674,-125,-548,245,383,73
820,1,2022-09-30T20:57:05.465653,4189939,-1674,655,-436,674,-125,-548,245,383,73
821,1,2022-09-30T20:57:05.472397,4189944,-1674,655,-436,674,-125,-548,245,383,73
822,1,2022-09-30T20:57:05.479096,4189953,-1669,657,-437,768,-233,-441,245,383,73
823,1,2022-09-30T20:57:05.487482,4189961,-1669,657,-437,768,-233,-441,245,383,73
824,1,2022-09-30T20:57:05.492866,4189967,-1669,657,-437,768,-233,-441,245,383,73
825,1,2022-09-30T20:57:05.499660,4189973,-1676,663,-426,824,-307,-341,228,382,74
826,1,2022-09-30T20:57:05.508865,4189982,-1676,663,-426,824,-307,-341,228,382,74
827,1,2022-09-30T20:57:05.515030,4189988,-1676,663,-426,824,-307,-341,228,382,74
828,1,2022-09-30T20:57:05.521621,4189995,-1674,666,-420,861,-387,-217,228,382,74
829,1,2022-09-30T20:57:05.531090,4190005,-1674,666,-420,861,-387,-217,228,382,74
830,1,2022-09-30T20:57:05.537064,4190011,-1674,666,-420,861,-387,-217,228,382,74
831,1,2022-09-30T20:57:05.542765,4190016,-1661,666,-414,874,-472,-77,228,382,74
832,1,2022-09-30T20:57:05.557241,4190030,-1661,666,-414,874,-472,-77,228,382,74
833,1,2022-09-30T20:57:05.562161,4190036,-1654,667,-404,868,-521,7,228,382,74
834,1,2022-09-30T20:57:05.568775,4190042,-1654,667,-404,868,-521,7,228,382,74
835,1,2022-09-30T20:57:05.574934,4190049,-1654,667,-404,868,-521,7,228,382,74
836,1,2022-09-30T20:57:05.581218,4190055,-1652,670,-392,890,-534,18,228,382,74
837,1,2022-09-30T20:57:05.589116,4190063,-1652,670,-392,890,-534,18,228,382,74
838,1,2022-09-30T20:57:05.595274,4190068,-1652,670,-392,890,-534,18,228,382,74
839,1,2022-09-30T20:57:05.602726,4190075,-1658,665,-389,943,-580,32,228,382,74
840,1,2022-09-30T20:57:05.610268,4190085,-1658,665,-389,943,-580,32,228,382,74
841,1,2022-09-30T20:57:05.615823,4190090,-1658,665,-389,943,-580,32,228,382,74
842,1,2022-09-30T20:57:05.624006,4190097,-1655,655,-377,1046,-594,-18,233,377,79
843,1,2022-09-30T20:57:05.633311,4190107,-1655,655,-377,1046,-594,-18,233,377,79
844,1,2022-09-30T20:57:05.638285,4190112,-1642,655,-366,1244,-573,-71,233,377,79
845,1,2022-09-30T20:57:05.649869,4190119,-1642,655,-366,1244,-573,-71,233,377,79
846,1,2022-09-30T20:57:05.655832,4190130,-1642,655,-366,1244,-573,-71,233,377,79
847,1,2022-09-30T20:57:05.660956,4190135,-1639,654,-371,1499,-526,-102,233,377,79
848,1,2022-09-30T20:57:05.668820,4190142,-1639,654,-371,1499,-526,-102,233,377,79
849,1,2022-09-30T20:57:05.675906,4190149,-1639,654,-371,1499,-526,-102,233,377,79
850,1,2022-09-30T20:57:05.681867,4190155,-1642,657,-367,1756,-434,-160,233,377,79
851,1,2022-09-30T20:57:05.688585,4190162,-1642,657,-367,1756,-434,-160,233,377,79
852,1,2022-09-30T20:57:05.695020,4190168,-1642,657,-367,1756,-434,-160,233,377,79
853,1,2022-09-30T20:57:05.701539,4190176,-1643,667,-362,1965,-349,-259,233,377,79
854,1,2022-09-30T20:57:05.710960,4190185,-1643,667,-362,1965,-349,-259,233,377,79
855,1,2022-09-30T20:57:05.717816,4190190,-1643,667,-362,1965,-349,-259,233,377,79
856,1,2022-09-30T20:57:05.725420,4190198,-1644,673,-361,2108,-263,-349,233,377,79
857,1,2022-09-30T20:57:05.733505,4190208,-1644,673,-361,2108,-263,-349,233,377,79
858,1,2022-09-30T20:57:05.738876,4190213,-1646,679,-365,2205,-193,-402,227,385,79
859,1,2022-09-30T20:57:05.749390,4190222,-1646,679,-365,2205,-193,-402,227,385,81
860,1,2022-09-30T20:57:05.754808,4190228,-1646,679,-365,2205,-193,-402,227,385,81
861,1,2022-09-30T20:57:05.760026,4190234,-1646,674,-365,2273,-138,-400,227,385,81
862,1,2022-09-30T20:57:05.769658,4190242,-1646,674,-365,2273,-138,-400,227,385,81
863,1,2022-09-30T20:57:05.776723,4190251,-1646,674,-365,2273,-138,-400,227,385,81
864,1,2022-09-30T20:57:05.782047,4190256,-1650,673,-380,2370,-83,-377,227,385,81
865,1,2022-09-30T20:57:05.790989,4190265,-1650,673,-380,2370,-83,-377,227,385,81
866,1,2022-09-30T20:57:05.798143,4190271,-1650,673,-380,2370,-83,-377,227,385,81
867,1,2022-09-30T20:57:05.804390,4190278,-1654,672,-377,2468,-45,-359,227,385,81
868,1,2022-09-30T20:57:05.812183,4190286,-1654,672,-377,2468,-45,-359,227,385,81
869,1,2022-09-30T20:57:05.817908,4190291,-1654,672,-377,2468,-45,-359,227,385,81
870,1,2022-09-30T20:57:05.826475,4190300,-1672,680,-381,2539,-49,-345,227,385,81
871,1,2022-09-30T20:57:05.833356,4190307,-1672,680,-381,2539,-49,-345,227,385,81
872,1,2022-09-30T20:57:05.838848,4190313,-1657,698,-384,2638,-186,-178,227,385,81
873,1,2022-09-30T20:57:05.847844,4190320,-1657,698,-384,2638,-186,-178,227,385,81
874,1,2022-09-30T20:57:05.853517,4190327,-1657,698,-384,2638,-186,-178,227,385,81
875,1,2022-09-30T20:57:05.859538,4190333,-1649,697,-391,2714,-224,1,214,384,78
876,1,2022-09-30T20:57:05.869829,4190343,-1649,697,-391,2714,-224,1,214,384,78
877,1,2022-09-30T20:57:05.875851,4190349,-1649,697,-391,2714,-224,1,214,384,78
878,1,2022-09-30T20:57:05.882552,4190356,-1642,692,-392,2801,-163,97,214,384,78
879,1,2022-09-30T20:57:05.892195,4190366,-1642,692,-392,2801,-163,97,214,384,78
880,1,2022-09-30T20:57:05.898975,4190372,-1653,690,-390,2823,-82,-2,214,384,78
881,1,2022-09-30T20:57:05.909717,4190384,-1653,690,-390,2823,-82,-2,214,384,78
882,1,2022-09-30T20:57:05.914913,4190389,-1653,690,-390,2823,-82,-2,214,384,78
883,1,2022-09-30T20:57:05.920484,4190394,-1653,692,-394,2871,-95,-113,214,384,78
884,1,2022-09-30T20:57:05.932413,4190406,-1653,692,-394,2871,-95,-113,214,384,78
885,1,2022-09-30T20:57:05.937716,4190411,-1653,692,-394,2871,-95,-113,214,384,78
886,1,2022-09-30T20:57:05.943352,4190416,-1651,692,-394,2974,-109,-185,214,384,78
887,1,2022-09-30T20:57:05.955358,4190429,-1651,692,-394,2974,-109,-185,214,384,78
888,1,2022-09-30T20:57:05.960580,4190435,-1640,697,-403,3127,-96,-216,214,384,78
889,1,2022-09-30T20:57:05.966140,4190440,-1640,697,-403,3127,-96,-216,214,384,78
890,1,2022-09-30T20:57:05.973523,4190446,-1640,697,-403,3127,-96,-216,214,384,78
891,1,2022-09-30T20:57:05.979557,4190453,-1656,702,-399,3265,-32,-265,214,384,78
892,1,2022-09-30T20:57:05.989761,4190464,-1656,702,-399,3265,-32,-265,214,384,78
893,1,2022-09-30T20:57:05.995964,4190469,-1656,702,-399,3265,-32,-265,214,384,78
894,1,2022-09-30T20:57:06.002916,4190476,-1660,712,-399,3387,-52,-266,213,391,79
895,1,2022-09-30T20:57:06.011043,4190485,-1660,712,-399,3387,-52,-266,213,391,79
896,1,2022-09-30T20:57:06.016939,4190490,-1660,712,-399,3387,-52,-266,213,391,79
897,1,2022-09-30T20:57:06.024779,4190498,-1663,701,-408,3480,-90,-316,213,391,79
898,1,2022-09-30T20:57:06.034646,4190509,-1663,701,-408,3480,-90,-316,213,391,79
899,1,2022-09-30T20:57:06.040303,4190514,-1677,684,-420,3589,-122,-441,213,391,79
900,1,2022-09-30T20:57:06.052252,4190526,-1677,684,-420,3589,-122,-441,213,391,79
901,1,2022-09-30T20:57:06.058017,4190532,-1677,684,-420,3589,-122,-441,213,391,79
902,1,2022-09-30T20:57:06.063434,4190537,-1652,684,-427,3734,-204,-592,213,391,79
903,1,2022-09-30T20:57:06.073959,4190546,-1652,684,-427,3734,-204,-592,213,391,79
904,1,2022-09-30T20:57:06.079947,4190554,-1651,701,-428,3802,-236,-753,213,391,79
905,1,2022-09-30T20:57:06.085736,4190559,-1651,701,-428,3802,-236,-753,213,391,79
906,1,2022-09-30T20:57:06.091602,4190566,-1651,701,-428,3802,-236,-753,213,391,79
907,1,2022-09-30T20:57:06.098883,4190572,-1651,701,-428,3802,-236,-753,213,391,79
908,1,2022-09-30T20:57:06.104784,4190578,-1665,726,-432,3786,-285,-740,213,391,79
909,1,2022-09-30T20:57:06.112688,4190586,-1665,726,-432,3786,-285,-740,213,391,79
910,1,2022-09-30T20:57:06.118626,4190592,-1665,726,-432,3786,-285,-740,213,391,79
911,1,2022-09-30T20:57:06.125166,4190599,-1664,723,-433,3746,-372,-491,190,386,78
912,1,2022-09-30T20:57:06.134001,4190608,-1664,723,-433,3746,-372,-491,190,386,78
913,1,2022-09-30T20:57:06.139263,4190613,-1650,705,-442,3668,-340,-343,190,386,78
914,1,2022-09-30T20:57:06.148839,4190621,-1650,705,-442,3668,-340,-343,190,386,78
915,1,2022-09-30T20:57:06.155181,4190628,-1650,705,-442,3668,-340,-343,190,386,78
916,1,2022-09-30T20:57:06.160981,4190635,-1638,712,-449,3587,-248,-341,190,386,78
917,1,2022-09-30T20:57:06.169675,4190643,-1638,712,-449,3587,-248,-341,190,386,78
918,1,2022-09-30T20:57:06.176929,4190651,-1638,712,-449,3587,-248,-341,190,386,78
919,1,2022-09-30T20:57:06.184631,4190658,-1652,727,-437,3487,-117,-343,190,386,78
920,1,2022-09-30T20:57:06.193565,4190667,-1652,727,-437,3487,-117,-343,190,386,78
921,1,2022-09-30T20:57:06.201147,4190674,-1666,733,-442,3439,-106,-230,190,386,78
922,1,2022-09-30T20:57:06.209948,4190684,-1666,733,-442,3439,-106,-230,190,386,78
923,1,2022-09-30T20:57:06.215409,4190689,-1666,733,-442,3439,-106,-230,190,386,78
924,1,2022-09-30T20:57:06.221432,4190695,-1673,724,-442,3399,-145,-142,190,386,78
925,1,2022-09-30T20:57:06.233144,4190707,-1673,724,-442,3399,-145,-142,190,386,78
926,1,2022-09-30T20:57:06.238563,4190712,-1673,724,-442,3399,-145,-142,190,386,78
927,1,2022-09-30T20:57:06.245163,4190717,-1668,717,-438,3445,-200,-85,179,387,77
928,1,2022-09-30T20:57:06.254319,4190728,-1668,717,-438,3445,-200,-85,179,387,77
929,1,2022-09-30T20:57:06.259691,4190734,-1669,719,-434,3525,-247,-114,179,387,77
930,1,2022-09-30T20:57:06.267170,4190741,-1669,719,-434,3525,-247,-114,179,387,77
931,1,2022-09-30T20:57:06.275537,4190748,-1669,719,-434,3525,-247,-114,179,387,77
932,1,2022-09-30T20:57:06.282686,4190756,-1669,728,-422,3554,-381,-215,179,387,77
933,1,2022-09-30T20:57:06.290748,4190765,-1669,728,-422,3554,-381,-215,179,387,77
934,1,2022-09-30T20:57:06.296946,4190770,-1669,728,-422,3554,-381,-215,179,387,77
935,1,2022-09-30T20:57:06.303531,4190777,-1669,751,-404,3539,-639,-269,179,387,77
936,1,2022-09-30T20:57:06.311695,4190786,-1669,751,-404,3539,-639,-269,179,387,77
937,1,2022-09-30T20:57:06.317567,4190791,-1669,751,-404,3539,-639,-269,179,387,77
938,1,2022-09-30T20:57:06.325662,4190799,-1693,778,-378,3383,-852,-326,179,387,77
939,1,2022-09-30T20:57:06.335119,4190809,-1693,778,-378,3383,-852,-326,179,387,77
940,1,2022-09-30T20:57:06.340939,4190815,-1689,769,-385,3231,-1093,-160,179,387,77
941,1,2022-09-30T20:57:06.352923,4190827,-1689,769,-385,3231,-1093,-160,179,387,77
942,1,2022-09-30T20:57:06.358316,4190832,-1689,769,-385,3231,-1093,-160,179,387,77
943,1,2022-09-30T20:57:06.364020,4190838,-1631,727,-407,3177,-1089,2,162,380,70
944,1,2022-09-30T20:57:06.372366,4190845,-1631,727,-407,3177,-1089,2,162,380,70
945,1,2022-09-30T20:57:06.380615,4190854,-1625,698,-417,3230,-807,-174,162,380,70
946,1,2022-09-30T20:57:06.388540,4190863,-1625,698,-417,3230,-807,-174,162,380,70
947,1,2022-09-30T20:57:06.395051,4190868,-1625,698,-417,3230,-807,-174,162,380,70
948,1,2022-09-30T20:57:06.401468,4190875,-1651,687,-410,3399,-688,-478,162,380,70
949,1,2022-09-30T20:57:06.409652,4190883,-1651,687,-410,3399,-688,-478,162,380,70
950,1,2022-09-30T20:57:06.415660,4190889,-1651,687,-410,3399,-688,-478,162,380,70
951,1,2022-09-30T20:57:06.421715,4190895,-1660,686,-411,3570,-821,-762,162,380,70
952,1,2022-09-30T20:57:06.431879,4190906,-1660,686,-411,3570,-821,-762,162,380,70
953,1,2022-09-30T20:57:06.437906,4190912,-1660,686,-411,3570,-821,-762,162,380,70
954,1,2022-09-30T20:57:06.443797,4190917,-1666,697,-400,3701,-1034,-989,162,380,70
955,1,2022-09-30T20:57:06.457238,4190930,-1666,697,-400,3701,-1034,-989,162,380,70
956,1,2022-09-30T20:57:06.462586,4190937,-1664,713,-391,3792,-1218,-1090,162,380,70
957,1,2022-09-30T20:57:06.471025,4190944,-1664,713,-391,3792,-1218,-1090,162,380,70
958,1,2022-09-30T20:57:06.476993,4190951,-1664,713,-391,3792,-1218,-1090,162,380,70
959,1,2022-09-30T20:57:06.483949,4190958,-1664,718,-371,3882,-1323,-974,162,380,70
960,1,2022-09-30T20:57:06.492301,4190966,-1664,718,-371,3882,-1323,-974,162,380,70
961,1,2022-09-30T20:57:06.499433,4190972,-1660,720,-350,3909,-1358,-853,162,380,70
962,1,2022-09-30T20:57:06.509458,4190984,-1660,720,-350,3909,-1358,-853,152,380,80
963,1,2022-09-30T20:57:06.515854,4190990,-1660,720,-350,3909,-1358,-853,152,380,80
964,1,2022-09-30T20:57:06.522711,4190995,-1660,723,-333,3841,-1359,-814,152,380,80
965,1,2022-09-30T20:57:06.560533,4191034,-1598,712,-334,3624,-1191,-854,152,380,80
966,1,2022-09-30T20:57:06.568861,4191042,-1598,712,-334,3624,-1191,-854,152,380,80
967,1,2022-09-30T20:57:06.575200,4191048,-1598,712,-334,3624,-1191,-854,152,380,80
968,1,2022-09-30T20:57:06.580554,4191054,-1620,719,-316,3527,-778,-929,152,380,80
969,1,2022-09-30T20:57:06.587495,4191062,-1620,719,-316,3527,-778,-929,152,380,80
970,1,2022-09-30T20:57:06.593230,4191067,-1620,719,-316,3527,-778,-929,152,380,80
971,1,2022-09-30T20:57:06.601039,4191075,-1646,726,-307,3476,-606,-810,152,380,80
972,1,2022-09-30T20:57:06.608923,4191083,-1646,726,-307,3476,-606,-810,152,380,80
973,1,2022-09-30T20:57:06.614283,4191088,-1646,726,-307,3476,-606,-810,152,380,80
974,1,2022-09-30T20:57:06.621957,4191093,-1662,709,-301,3462,-571,-638,153,389,67
975,1,2022-09-30T20:57:06.631065,4191105,-1662,709,-301,3462,-571,-638,153,389,67
976,1,2022-09-30T20:57:06.636290,4191111,-1662,709,-301,3462,-571,-638,153,389,67
977,1,2022-09-30T20:57:06.641950,4191116,-1646,682,-313,3532,-533,-512,153,389,67
978,1,2022-09-30T20:57:06.654365,4191128,-1646,682,-313,3532,-533,-512,153,389,67
979,1,2022-09-30T20:57:06.660375,4191134,-1634,670,-312,3664,-383,-601,153,389,67
980,1,2022-09-30T20:57:06.670240,4191143,-1634,670,-312,3664,-383,-601,153,389,67
981,1,2022-09-30T20:57:06.677086,4191151,-1634,670,-312,3664,-383,-601,153,389,67
982,1,2022-09-30T20:57:06.682380,4191157,-1631,678,-314,3821,-252,-727,153,389,67
983,1,2022-09-30T20:57:06.690130,4191164,-1631,678,-314,3821,-252,-727,153,389,67
984,1,2022-09-30T20:57:06.696558,4191169,-1631,678,-314,3821,-252,-727,153,389,67
985,1,2022-09-30T20:57:06.702580,4191176,-1643,695,-310,3972,-158,-779,153,389,67
986,1,2022-09-30T20:57:06.711796,4191185,-1643,695,-310,3972,-158,-779,153,389,67
987,1,2022-09-30T20:57:06.717018,4191191,-1643,695,-310,3972,-158,-779,153,389,67
988,1,2022-09-30T20:57:06.722895,4191197,-1649,721,-299,4106,-173,-675,153,389,67
989,1,2022-09-30T20:57:06.732744,4191207,-1649,721,-299,4106,-173,-675,153,389,67
990,1,2022-09-30T20:57:06.738097,4191212,-1649,721,-299,4106,-173,-675,153,389,67
991,1,2022-09-30T20:57:06.745708,4191218,-1653,726,-300,4206,-241,-443,141,385,75
992,1,2022-09-30T20:57:06.755119,4191229,-1653,726,-300,4206,-241,-443,141,385,75
993,1,2022-09-30T20:57:06.761460,4191235,-1648,716,-305,4273,-234,-255,141,385,75
994,1,2022-09-30T20:57:06.771351,4191244,-1648,716,-305,4273,-234,-255,141,385,75
995,1,2022-09-30T20:57:06.779525,4191253,-1640,706,-312,4307,-157,-274,141,385,75
996,1,2022-09-30T20:57:06.787964,4191260,-1640,706,-312,4307,-157,-274,141,385,75
997,1,2022-09-30T20:57:06.796309,4191269,-1640,706,-312,4307,-157,-274,141,385,75
998,1,2022-09-30T20:57:06.803543,4191277,-1633,715,-313,4323,-89,-397,141,385,75
999,1,2022-09-30T20:57:06.812216,4191286,-1633,715,-313,4323,-89,-397,141,385,75
1000,1,2022-09-30T20:57:06.817379,4191291,-1633,715,-313,4323,-89,-397,141,385,75
1001,1,2022-09-30T20:57:06.824057,4191297,-1644,722,-318,4268,-21,-593,141,385,75
1002,1,2022-09-30T20:57:06.832273,4191305,-1644,722,-318,4268,-21,-593,141,385,75
1003,1,2022-09-30T20:57:06.838573,4191311,-1644,722,-318,4268,-21,-593,141,385,75
1004,1,2022-09-30T20:57:06.846104,4191319,-1658,731,-317,4226,-7,-655,141,385,75
1005,1,2022-09-30T20:57:06.857090,4191331,-1658,731,-317,4226,-7,-655,141,385,75
1006,1,2022-09-30T20:57:06.862582,4191337,-1655,726,-319,4194,-37,-639,122,378,70
1007,1,2022-09-30T20:57:06.871690,4191344,-1655,726,-319,4194,-37,-639,122,378,70
1008,1,2022-09-30T20:57:06.878605,4191352,-1655,726,-319,4194,-37,-639,122,378,70
1009,1,2022-09-30T20:57:06.884802,4191358,-1653,721,-324,4189,-29,-619,122,378,70
1010,1,2022-09-30T20:57:06.894235,4191367,-1653,721,-324,4189,-29,-619,122,378,70
1011,1,2022-09-30T20:57:06.903540,4191377,-1656,710,-321,4176,-20,-654,122,378,70
1012,1,2022-09-30T20:57:06.913128,4191387,-1656,710,-321,4176,-20,-654,122,378,70
1013,1,2022-09-30T20:57:06.918811,4191392,-1656,710,-321,4176,-20,-654,122,378,70
1014,1,2022-09-30T20:57:06.925996,4191399,-1645,707,-329,4174,-76,-712,122,378,70
1015,1,2022-09-30T20:57:06.936142,4191410,-1645,707,-329,4174,-76,-712,122,378,70
1016,1,2022-09-30T20:57:06.943020,4191417,-1649,709,-333,4144,-94,-798,122,378,70
1017,1,2022-09-30T20:57:06.951172,4191425,-1649,709,-333,4144,-94,-798,122,378,70
1018,1,2022-09-30T20:57:06.957098,4191431,-1649,709,-333,4144,-94,-798,122,378,70
1019,1,2022-09-30T20:57:06.962143,4191436,-1637,714,-338,4108,-105,-839,122,378,70
1020,1,2022-09-30T20:57:06.970377,4191443,-1637,714,-338,4108,-105,-839,122,378,70
1021,1,2022-09-30T20:57:06.977251,4191451,-1637,714,-338,4108,-105,-839,122,378,70
1022,1,2022-09-30T20:57:06.983073,4191457,-1627,707,-342,4048,-95,-863,112,384,54
1023,1,2022-09-30T20:57:06.991731,4191466,-1627,707,-342,4048,-95,-863,112,384,54
1024,1,2022-09-30T20:57:06.999430,4191471,-1627,707,-342,4048,-95,-863,112,384,54
1025,1,2022-09-30T20:57:07.006019,4191479,-1620,687,-357,3978,-28,-927,112,384,54
1026,1,2022-09-30T20:57:07.014541,4191489,-1620,687,-357,3978,-28,-927,112,384,54
1027,1,2022-09-30T20:57:07.021152,4191494,-1623,664,-371,3940,126,-1070,112,384,54
1028,1,2022-09-30T20:57:07.034795,4191508,-1623,664,-371,3940,126,-1070,112,384,54
1029,1,2022-09-30T20:57:07.041085,4191514,-1625,649,-384,4020,245,-1163,112,384,54
1030,1,2022-09-30T20:57:07.053562,4191527,-1625,649,-384,4020,245,-1163,112,384,54
1031,1,2022-09-30T20:57:07.059745,4191534,-1644,636,-398,4174,328,-1225,112,384,54
1032,1,2022-09-30T20:57:07.066542,4191541,-1644,636,-398,4174,328,-1225,112,384,54
1033,1,2022-09-30T20:57:07.072895,4191546,-1644,636,-398,4174,328,-1225,112,384,54
1034,1,2022-09-30T20:57:07.079556,4191553,-1642,625,-421,4380,349,-1249,112,384,54
1035,1,2022-09-30T20:57:07.086773,4191560,-1642,625,-421,4380,349,-1249,112,384,54
1036,1,2022-09-30T20:57:07.095307,4191567,-1642,625,-421,4380,349,-1249,112,384,54
1037,1,2022-09-30T20:57:07.101817,4191576,-1643,610,-435,4512,418,-1384,112,384,54
1038,1,2022-09-30T20:57:07.111271,4191585,-1643,610,-435,4512,418,-1384,112,384,54
1039,1,2022-09-30T20:57:07.117047,4191591,-1643,610,-435,4512,418,-1384,112,384,54
1040,1,2022-09-30T20:57:07.124310,4191597,-1655,620,-443,4552,445,-1525,99,387,45
1041,1,2022-09-30T20:57:07.134512,4191607,-1655,620,-443,4552,445,-1525,99,387,45
1042,1,2022-09-30T20:57:07.140859,4191614,-1665,621,-452,4494,455,-1613,99,387,45
1043,1,2022-09-30T20:57:07.151534,4191625,-1665,621,-452,4494,455,-1613,99,387,45
1044,1,2022-09-30T20:57:07.156791,4191631,-1665,621,-452,4494,455,-1613,99,387,45
1045,1,2022-09-30T20:57:07.162767,4191636,-1681,620,-444,4417,390,-1562,99,387,45
1046,1,2022-09-30T20:57:07.173118,4191646,-1681,620,-444,4417,390,-1562,99,387,45
1047,1,2022-09-30T20:57:07.179171,4191652,-1680,625,-438,4318,239,-1393,99,387,45
1048,1,2022-09-30T20:57:07.185802,4191660,-1680,625,-438,4318,239,-1393,99,387,45
1049,1,2022-09-30T20:57:07.193297,4191666,-1680,625,-438,4318,239,-1393,99,387,45
1050,1,2022-09-30T20:57:07.201244,4191675,-1674,632,-436,4204,92,-1153,99,387,45
1051,1,2022-09-30T20:57:07.209393,4191683,-1674,632,-436,4204,92,-1153,99,387,45
1052,1,2022-09-30T20:57:07.214700,4191688,-1674,632,-436,4204,92,-1153,99,387,45
1053,1,2022-09-30T20:57:07.220272,4191694,-1669,635,-437,4041,46,-911,99,387,45
1054,1,2022-09-30T20:57:07.228036,4191702,-1669,635,-437,4041,46,-911,99,387,45
1055,1,2022-09-30T20:57:07.233556,4191708,-1669,635,-437,4041,46,-911,99,387,45
1056,1,2022-09-30T20:57:07.238682,4191713,-1657,638,-432,3876,17,-661,99,387,45
1057,1,2022-09-30T20:57:07.245929,4191719,-1657,638,-432,3876,17,-661,93,393,33
1058,1,2022-09-30T20:57:07.254560,4191728,-1657,638,-432,3876,17,-661,93,393,33
1059,1,2022-09-30T20:57:07.260725,4191734,-1657,646,-422,3674,49,-515,93,393,33
1060,1,2022-09-30T20:57:07.270973,4191744,-1657,646,-422,3674,49,-515,93,393,33
1061,1,2022-09-30T20:57:07.278005,4191752,-1657,646,-422,3674,49,-515,93,393,33
1062,1,2022-09-30T20:57:07.284991,4191758,-1657,655,-412,3468,83,-408,93,393,33
1063,1,2022-09-30T20:57:07.293544,4191767,-1657,655,-412,3468,83,-408,93,393,33
1064,1,2022-09-30T20:57:07.301269,4191775,-1672,669,-402,3255,87,-310,93,393,33
1065,1,2022-09-30T20:57:07.310094,4191783,-1672,669,-402,3255,87,-310,93,393,33
1066,1,2022-09-30T20:57:07.315960,4191790,-1672,669,-402,3255,87,-310,93,393,33
1067,1,2022-09-30T20:57:07.322397,4191796,-1686,684,-392,3048,-29,-174,93,393,33
1068,1,2022-09-30T20:57:07.334134,4191808,-1686,684,-392,3048,-29,-174,93,393,33
1069,1,2022-09-30T20:57:07.340008,4191813,-1679,694,-388,2796,-214,-53,93,393,33
1070,1,2022-09-30T20:57:07.349382,4191820,-1679,694,-388,2796,-214,-53,93,393,33
1071,1,2022-09-30T20:57:07.358968,4191833,-1679,694,-388,2796,-214,-53,93,393,33
1072,1,2022-09-30T20:57:07.365592,4191839,-1666,704,-378,2501,-399,27,93,393,9
1073,1,2022-09-30T20:57:07.379402,4191852,-1666,704,-378,2501,-399,27,93,393,9
1074,1,2022-09-30T20:57:07.385707,4191859,-1653,705,-372,2210,-464,59,93,393,9
1075,1,2022-09-30T20:57:07.391405,4191864,-1653,705,-372,2210,-464,59,93,393,9
1076,1,2022-09-30T20:57:07.399217,4191873,-1653,705,-372,2210,-464,59,93,393,9
1077,1,2022-09-30T20:57:07.405820,4191879,-1646,696,-370,1959,-430,84,93,393,9
1078,1,2022-09-30T20:57:07.415665,4191889,-1646,696,-370,1959,-430,84,93,393,9
1079,1,2022-09-30T20:57:07.423636,4191895,-1650,694,-365,1761,-331,21,93,393,9
1080,1,2022-09-30T20:57:07.433477,4191906,-1650,694,-365,1761,-331,21,93,393,9
1081,1,2022-09-30T20:57:07.438858,4191912,-1650,694,-365,1761,-331,21,93,393,9
1082,1,2022-09-30T20:57:07.446418,4191919,-1649,691,-358,1608,-320,-33,93,393,9
1083,1,2022-09-30T20:57:07.458468,4191932,-1649,691,-358,1608,-320,-33,93,393,9
1084,1,2022-09-30T20:57:07.463781,4191938,-1658,698,-348,1442,-356,-107,93,393,9
1085,1,2022-09-30T20:57:07.476228,4191948,-1658,698,-348,1442,-356,-107,93,393,9
1086,1,2022-09-30T20:57:07.481226,4191955,-1647,707,-345,1271,-407,-117,88,392,14
1087,1,2022-09-30T20:57:07.489239,4191963,-1647,707,-345,1271,-407,-117,88,392,14
1088,1,2022-09-30T20:57:07.499083,4191970,-1647,707,-345,1271,-407,-117,88,392,14
1089,1,2022-09-30T20:57:07.505684,4191979,-1647,713,-344,1062,-400,-106,88,392,14
1090,1,2022-09-30T20:57:07.514667,4191988,-1647,713,-344,1062,-400,-106,88,392,14
1091,1,2022-09-30T20:57:07.522543,4191994,-1654,711,-335,822,-410,-80,88,392,14
1092,1,2022-09-30T20:57:07.532447,4192007,-1654,711,-335,822,-410,-80,88,392,14
1093,1,2022-09-30T20:57:07.537822,4192012,-1654,711,-335,822,-410,-80,88,392,14
1094,1,2022-09-30T20:57:07.543682,4192017,-1648,711,-335,576,-474,-49,88,392,14
1095,1,2022-09-30T20:57:07.555083,4192029,-1648,711,-335,576,-474,-49,88,392,14
1096,1,2022-09-30T20:57:07.560591,4192034,-1649,707,-340,353,-498,-50,88,392,14
1097,1,2022-09-30T20:57:07.568283,4192041,-1649,707,-340,353,-498,-50,88,392,14
1098,1,2022-09-30T20:57:07.575563,4192049,-1649,707,-340,353,-498,-50,88,392,14
1099,1,2022-09-30T20:57:07.582724,4192057,-1648,706,-339,111,-488,-113,88,392,14
1100,1,2022-09-30T20:57:07.590648,4192065,-1648,706,-339,111,-488,-113,88,392,14
1101,1,2022-09-30T20:57:07.596698,4192070,-1648,706,-339,111,-488,-113,88,392,14
1102,1,2022-09-30T20:57:07.602539,4192076,-1629,702,-341,-99,-520,-135,88,392,14
1103,1,2022-09-30T20:57:07.612644,4192087,-1629,702,-341,-99,-520,-135,88,392,14
1104,1,2022-09-30T20:57:07.620113,4192093,-1629,702,-341,-99,-520,-135,88,392,14
1105,1,2022-09-30T20:57:07.627655,4192101,-1649,691,-336,-356,-443,-272,84,394,10
1106,1,2022-09-30T20:57:07.637794,4192112,-1649,691,-336,-356,-443,-272,84,394,10
1107,1,2022-09-30T20:57:07.644165,4192117,-1634,676,-343,-534,-452,-283,84,394,10
1108,1,2022-09-30T20:57:07.657845,4192131,-1634,676,-343,-534,-452,-283,84,394,10
1109,1,2022-09-30T20:57:07.664352,4192138,-1640,666,-346,-663,-357,-313,84,394,10
1110,1,2022-09-30T20:57:07.674432,4192147,-1640,666,-346,-663,-357,-313,84,394,10
1111,1,2022-09-30T20:57:07.681164,4192154,-1643,660,-347,-740,-312,-303,84,394,10
1112,1,2022-09-30T20:57:07.691096,4192164,-1643,660,-347,-740,-312,-303,84,394,10
1113,1,2022-09-30T20:57:07.699134,4192172,-1643,660,-347,-740,-312,-303,84,394,10
1114,1,2022-09-30T20:57:07.706081,4192180,-1648,664,-354,-843,-259,-302,84,394,10
1115,1,2022-09-30T20:57:07.715047,4192189,-1648,664,-354,-843,-259,-302,84,394,10
1116,1,2022-09-30T20:57:07.722643,4192195,-1647,670,-359,-971,-261,-273,84,394,10
1117,1,2022-09-30T20:57:07.734960,4192208,-1647,670,-359,-971,-261,-273,84,394,10
1118,1,2022-09-30T20:57:07.740975,4192215,-1647,673,-369,-1166,-241,-267,87,399,13
1119,1,2022-09-30T20:57:07.753949,4192228,-1647,673,-369,-1166,-241,-267,87,399,13
1120,1,2022-09-30T20:57:07.759876,4192233,-1648,671,-377,-1395,-195,-255,87,399,13
1121,1,2022-09-30T20:57:07.766721,4192240,-1648,671,-377,-1395,-195,-255,87,399,13
1122,1,2022-09-30T20:57:07.776871,4192250,-1648,671,-377,-1395,-195,-255,87,399,13
1123,1,2022-09-30T20:57:07.782844,4192257,-1658,674,-377,-1656,-145,-297,87,399,13
1124,1,2022-09-30T20:57:07.790770,4192265,-1658,674,-377,-1656,-145,-297,87,399,13
1125,1,2022-09-30T20:57:07.797574,4192271,-1658,674,-377,-1656,-145,-297,87,399,13
1126,1,2022-09-30T20:57:07.804272,4192278,-1667,673,-385,-1925,-168,-346,87,399,13
1127,1,2022-09-30T20:57:07.812539,4192286,-1667,673,-385,-1925,-168,-346,87,399,13
1128,1,2022-09-30T20:57:07.819160,4192292,-1667,673,-385,-1925,-168,-346,87,399,13
1129,1,2022-09-30T20:57:07.827560,4192302,-1667,676,-382,-2210,-283,-369,87,399,13
1130,1,2022-09-30T20:57:07.837613,4192311,-1667,676,-382,-2210,-283,-369,87,399,13
1131,1,2022-09-30T20:57:07.843770,4192318,-1666,678,-380,-2511,-412,-335,87,399,13
1132,1,2022-09-30T20:57:07.851622,4192325,-1666,678,-380,-2511,-412,-335,87,399,13
1133,1,2022-09-30T20:57:07.856955,4192331,-1666,678,-380,-2511,-412,-335,87,399,13
1134,1,2022-09-30T20:57:07.862339,4192336,-1667,675,-375,-2784,-521,-270,87,391,11
1135,1,2022-09-30T20:57:07.870119,4192345,-1667,675,-375,-2784,-521,-270,87,391,11
1136,1,2022-09-30T20:57:07.875263,4192350,-1667,675,-375,-2784,-521,-270,87,391,11
1137,1,2022-09-30T20:57:07.880535,4192355,-1668,675,-373,-3050,-630,-161,87,391,11
1138,1,2022-09-30T20:57:07.886753,4192360,-1668,675,-373,-3050,-630,-161,87,391,11
1139,1,2022-09-30T20:57:07.894702,4192368,-1668,675,-373,-3050,-630,-161,87,391,11
1140,1,2022-09-30T20:57:07.902042,4192375,-1668,675,-373,-3050,-630,-161,87,391,11
1141,1,2022-09-30T20:57:07.910573,4192385,-1668,675,-373,-3050,-630,-161,87,391,11
1142,1,2022-09-30T20:57:07.915713,4192390,-1668,675,-373,-3050,-630,-161,87,391,11
1143,1,2022-09-30T20:57:07.921725,4192395,-1663,677,-357,-3575,-764,-6,87,391,11
1144,1,2022-09-30T20:57:07.935181,4192409,-1663,677,-357,-3575,-764,-6,87,391,11
1145,1,2022-09-30T20:57:07.940409,4192414,-1659,675,-351,-3830,-826,95,87,391,11
1146,1,2022-09-30T20:57:07.950369,4192423,-1659,675,-351,-3830,-826,95,87,391,11
1147,1,2022-09-30T20:57:07.959246,4192433,-1659,675,-351,-3830,-826,95,87,391,11
1148,1,2022-09-30T20:57:07.965094,4192439,-1650,668,-344,-4038,-877,197,87,391,11
1149,1,2022-09-30T20:57:07.974964,4192448,-1650,668,-344,-4038,-877,197,87,391,11
1150,1,2022-09-30T20:57:07.982188,4192456,-1643,675,-337,-4227,-883,281,87,403,21
1151,1,2022-09-30T20:57:07.990866,4192464,-1643,675,-337,-4227,-883,281,87,403,21
1152,1,2022-09-30T20:57:07.998085,4192471,-1643,675,-337,-4227,-883,281,87,403,21
1153,1,2022-09-30T20:57:08.006232,4192480,-1652,674,-323,-4438,-815,301,87,403,21
1154,1,2022-09-30T20:57:08.015343,4192489,-1652,674,-323,-4438,-815,301,87,403,21
1155,1,2022-09-30T20:57:08.022273,4192495,-1642,678,-322,-4601,-822,372,87,403,21
1156,1,2022-09-30T20:57:08.034686,4192508,-1642,678,-322,-4601,-822,372,87,403,21
1157,1,2022-09-30T20:57:08.040779,4192514,-1642,678,-322,-4601,-822,372,87,403,21
1158,1,2022-09-30T20:57:08.047355,4192521,-1642,678,-322,-4601,-822,372,87,403,21
1159,1,2022-09-30T20:57:08.057566,4192530,-1642,678,-322,-4601,-822,372,87,403,21
1160,1,2022-09-30T20:57:08.064465,4192538,-1644,685,-318,-5019,-738,383,87,403,21
1161,1,2022-09-30T20:57:08.076576,4192549,-1644,685,-318,-5019,-738,383,87,403,21
1162,1,2022-09-30T20:57:08.082579,4192556,-1636,688,-316,-5233,-699,330,87,403,21
1163,1,2022-09-30T20:57:08.091358,4192565,-1636,688,-316,-5233,-699,330,87,403,21
1164,1,2022-09-30T20:57:08.100143,4192572,-1636,688,-316,-5233,-699,330,87,403,21
1165,1,2022-09-30T20:57:08.105756,4192579,-1635,690,-322,-5420,-660,310,87,403,21
1166,1,2022-09-30T20:57:08.113256,4192587,-1635,690,-322,-5420,-660,310,87,403,21
1167,1,2022-09-30T20:57:08.120673,4192593,-1637,690,-322,-5619,-601,275,87,403,21
1168,1,2022-09-30T20:57:08.128493,4192602,-1637,690,-322,-5619,-601,275,100,392,26
1169,1,2022-09-30T20:57:08.135729,4192610,-1637,690,-322,-5619,-601,275,100,392,26
1170,1,2022-09-30T20:57:08.141471,4192616,-1630,676,-330,-5795,-497,254,100,392,26
1171,1,2022-09-30T20:57:08.151807,4192626,-1630,676,-330,-5795,-497,254,100,392,26
1172,1,2022-09-30T20:57:08.157298,4192631,-1630,676,-330,-5795,-497,254,100,392,26
1173,1,2022-09-30T20:57:08.162743,4192636,-1633,665,-332,-5924,-378,205,100,392,26
1174,1,2022-09-30T20:57:08.168859,4192642,-1633,665,-332,-5924,-378,205,100,392,26
1175,1,2022-09-30T20:57:08.175209,4192649,-1633,665,-332,-5924,-378,205,100,392,26
1176,1,2022-09-30T20:57:08.180640,4192655,-1636,659,-345,-6049,-293,57,100,392,26
1177,1,2022-09-30T20:57:08.188745,4192663,-1636,659,-345,-6049,-293,57,100,392,26
1178,1,2022-09-30T20:57:08.196466,4192669,-1636,659,-345,-6049,-293,57,100,392,26
1179,1,2022-09-30T20:57:08.203395,4192677,-1643,653,-345,-6161,-291,-94,100,392,26
1180,1,2022-09-30T20:57:08.212188,4192686,-1643,653,-345,-6161,-291,-94,100,392,26
1181,1,2022-09-30T20:57:08.218464,4192692,-1643,653,-345,-6161,-291,-94,100,392,26
1182,1,2022-09-30T20:57:08.225394,4192699,-1657,653,-342,-6312,-285,-218,100,392,26
1183,1,2022-09-30T20:57:08.232063,4192706,-1657,653,-342,-6312,-285,-218,100,392,26
1184,1,2022-09-30T20:57:08.237771,4192711,-1657,653,-342,-6312,-285,-218,100,392,26
1185,1,2022-09-30T20:57:08.243044,4192717,-1649,657,-341,-6453,-372,-194,94,396,34
1186,1,2022-09-30T20:57:08.255772,4192730,-1649,657,-341,-6453,-372,-194,94,396,34
1187,1,2022-09-30T20:57:08.261477,4192736,-1653,660,-345,-6652,-427,-163,94,396,34
1188,1,2022-09-30T20:57:08.269294,4192743,-1653,660,-345,-6652,-427,-163,94,396,34
1189,1,2022-09-30T20:57:08.277856,4192751,-1653,660,-345,-6652,-427,-163,94,396,34
1190,1,2022-09-30T20:57:08.284156,4192758,-1652,657,-350,-6866,-511,-54,94,396,34
1191,1,2022-09-30T20:57:08.292362,4192765,-1652,657,-350,-6866,-511,-54,94,396,34
1192,1,2022-09-30T20:57:08.299868,4192773,-1652,657,-350,-6866,-511,-54,94,396,34
1193,1,2022-09-30T20:57:08.306214,4192780,-1655,651,-351,-7128,-520,15,94,396,34
1194,1,2022-09-30T20:57:08.314078,4192787,-1655,651,-351,-7128,-520,15,94,396,34
1195,1,2022-09-30T20:57:08.320749,4192793,-1658,639,-353,-7353,-512,71,94,396,34
1196,1,2022-09-30T20:57:08.331206,4192804,-1658,639,-353,-7353,-512,71,94,396,34
1197,1,2022-09-30T20:57:08.339227,4192813,-1658,639,-353,-7353,-512,71,94,396,34
1198,1,2022-09-30T20:57:08.346690,4192819,-1661,637,-349,-7543,-526,137,94,396,34
1199,1,2022-09-30T20:57:08.357695,4192832,-1661,637,-349,-7543,-526,137,94,396,34
1200,1,2022-09-30T20:57:08.364443,4192837,-1659,644,-342,-7707,-586,272,113,383,43
1201,1,2022-09-30T20:57:08.375024,4192847,-1659,644,-342,-7707,-586,272,113,383,43
1202,1,2022-09-30T20:57:08.383720,4192857,-1650,641,-350,-7848,-634,433,113,383,43
1203,1,2022-09-30T20:57:08.393973,4192867,-1650,641,-350,-7848,-634,433,113,383,43
1204,1,2022-09-30T20:57:08.400750,4192874,-1647,641,-349,-7952,-633,613,113,383,43
1205,1,2022-09-30T20:57:08.410468,4192883,-1647,641,-349,-7952,-633,613,113,383,43
1206,1,2022-09-30T20:57:08.416286,4192889,-1647,641,-349,-7952,-633,613,113,383,43
1207,1,2022-09-30T20:57:08.422700,4192896,-1665,643,-349,-8072,-615,729,113,383,43
1208,1,2022-09-30T20:57:08.433333,4192908,-1665,643,-349,-8072,-615,729,113,383,43
1209,1,2022-09-30T20:57:08.440104,4192914,-1661,649,-347,-8198,-669,849,113,383,43
1210,1,2022-09-30T20:57:08.450857,4192924,-1661,649,-347,-8198,-669,849,113,383,43
1211,1,2022-09-30T20:57:08.457601,4192931,-1661,649,-347,-8198,-669,849,113,383,43
1212,1,2022-09-30T20:57:08.462862,4192936,-1656,655,-343,-8377,-676,938,113,383,43
1213,1,2022-09-30T20:57:08.470925,4192945,-1656,655,-343,-8377,-676,938,113,383,43
1214,1,2022-09-30T20:57:08.478377,4192952,-1656,655,-343,-8377,-676,938,113,383,43
1215,1,2022-09-30T20:57:08.483735,4192958,-1647,655,-347,-8530,-684,1040,122,398,50
1216,1,2022-09-30T20:57:08.491234,4192965,-1647,655,-347,-8530,-684,1040,122,398,50
1217,1,2022-09-30T20:57:08.497725,4192970,-1647,655,-347,-8530,-684,1040,122,398,50
1218,1,2022-09-30T20:57:08.503856,4192977,-1642,661,-354,-8678,-633,1128,122,398,50
1219,1,2022-09-30T20:57:08.513377,4192988,-1642,661,-354,-8678,-633,1128,122,398,50
1220,1,2022-09-30T20:57:08.520320,4192994,-1649,665,-352,-8785,-591,1183,122,398,50
1221,1,2022-09-30T20:57:08.530839,4193004,-1649,665,-352,-8785,-591,1183,122,398,50
1222,1,2022-09-30T20:57:08.537453,4193011,-1649,665,-352,-8785,-591,1183,122,398,50
1223,1,2022-09-30T20:57:08.542784,4193017,-1652,672,-350,-8916,-587,1208,122,398,50
1224,1,2022-09-30T20:57:08.555656,4193030,-1652,672,-350,-8916,-587,1208,122,398,50
1225,1,2022-09-30T20:57:08.560806,4193035,-1656,681,-353,-9051,-608,1200,122,398,50
1226,1,2022-09-30T20:57:08.566781,4193041,-1656,681,-353,-9051,-608,1200,122,398,50
1227,1,2022-09-30T20:57:08.574346,4193048,-1656,681,-353,-9051,-608,1200,122,398,50
1228,1,2022-09-30T20:57:08.580650,4193054,-1642,683,-357,-9214,-623,1185,122,398,50
1229,1,2022-09-30T20:57:08.588311,4193062,-1642,683,-357,-9214,-623,1185,122,398,50
1230,1,2022-09-30T20:57:08.596179,4193069,-1642,683,-357,-9214,-623,1185,122,398,50
1231,1,2022-09-30T20:57:08.603097,4193077,-1637,681,-358,-9363,-574,1127,122,398,50
1232,1,2022-09-30T20:57:08.612541,4193087,-1637,681,-358,-9363,-574,1127,122,398,50
1233,1,2022-09-30T20:57:08.617943,4193092,-1637,681,-358,-9363,-574,1127,122,398,50
1234,1,2022-09-30T20:57:08.625984,4193099,-1643,677,-360,-9494,-516,1055,134,386,64
1235,1,2022-09-30T20:57:08.635505,4193110,-1643,677,-360,-9494,-516,1055,134,386,64
1236,1,2022-09-30T20:57:08.640892,4193115,-1644,677,-362,-9585,-485,949,134,386,64
1237,1,2022-09-30T20:57:08.650630,4193124,-1644,677,-362,-9585,-485,949,134,386,64
1238,1,2022-09-30T20:57:08.658505,4193132,-1644,677,-362,-9585,-485,949,134,386,64
1239,1,2022-09-30T20:57:08.663888,4193138,-1651,682,-361,-9684,-456,840,134,386,64
1240,1,2022-09-30T20:57:08.672300,4193145,-1651,682,-361,-9684,-456,840,134,386,64
1241,1,2022-09-30T20:57:08.680290,4193155,-1649,686,-359,-9785,-469,779,134,386,64
1242,1,2022-09-30T20:57:08.688141,4193162,-1649,686,-359,-9785,-469,779,134,386,64
1243,1,2022-09-30T20:57:08.695502,4193169,-1649,686,-359,-9785,-469,779,134,386,64
1244,1,2022-09-30T20:57:08.701730,4193175,-1655,686,-368,-9891,-462,742,134,386,64
1245,1,2022-09-30T20:57:08.711742,4193185,-1655,686,-368,-9891,-462,742,134,386,64
1246,1,2022-09-30T20:57:08.718447,4193191,-1655,686,-368,-9891,-462,742,134,386,64
1247,1,2022-09-30T20:57:08.727025,4193200,-1652,689,-370,-9993,-461,775,134,386,64
1248,1,2022-09-30T20:57:08.735082,4193209,-1652,689,-370,-9993,-461,775,134,386,64
1249,1,2022-09-30T20:57:08.741012,4193214,-1654,691,-371,-10097,-458,838,153,387,73
1250,1,2022-09-30T20:57:08.747926,4193220,-1654,691,-371,-10097,-458,838,153,387,73
1251,1,2022-09-30T20:57:08.756614,4193229,-1654,691,-371,-10097,-458,838,153,387,73
1252,1,2022-09-30T20:57:08.763179,4193236,-1660,695,-372,-10200,-451,919,153,387,73
1253,1,2022-09-30T20:57:08.772733,4193246,-1660,695,-372,-10200,-451,919,153,387,73
1254,1,2022-09-30T20:57:08.780311,4193254,-1661,695,-381,-10315,-465,1033,153,387,73
1255,1,2022-09-30T20:57:08.788382,4193262,-1661,695,-381,-10315,-465,1033,153,387,73
1256,1,2022-09-30T20:57:08.797203,4193269,-1661,695,-381,-10315,-465,1033,153,387,73
1257,1,2022-09-30T20:57:08.804509,4193277,-1669,708,-384,-10434,-478,1126,153,387,73
1258,1,2022-09-30T20:57:08.815166,4193289,-1669,708,-384,-10434,-478,1126,153,387,73
1259,1,2022-09-30T20:57:08.821006,4193295,-1663,717,-384,-10540,-527,1235,153,387,73
1260,1,2022-09-30T20:57:08.828015,4193302,-1663,717,-384,-10540,-527,1235,153,387,73
1261,1,2022-09-30T20:57:08.835223,4193309,-1663,717,-384,-10540,-527,1235,153,387,73
1262,1,2022-09-30T20:57:08.841286,4193315,-1669,722,-384,-10685,-575,1315,153,387,73
1263,1,2022-09-30T20:57:08.847339,4193320,-1669,722,-384,-10685,-575,1315,153,387,73
1264,1,2022-09-30T20:57:08.854744,4193328,-1669,722,-384,-10685,-575,1315,153,387,73
1265,1,2022-09-30T20:57:08.860264,4193334,-1658,730,-383,-10816,-674,1419,172,384,73
1266,1,2022-09-30T20:57:08.871902,4193344,-1658,730,-383,-10816,-674,1419,172,384,90
1267,1,2022-09-30T20:57:08.880646,4193354,-1655,732,-383,-10961,-683,1469,172,384,90
1268,1,2022-09-30T20:57:08.888577,4193362,-1655,732,-383,-10961,-683,1469,172,384,90
1269,1,2022-09-30T20:57:08.896463,4193369,-1655,732,-383,-10961,-683,1469,172,384,90
1270,1,2022-09-30T20:57:08.903052,4193377,-1654,720,-380,-11065,-662,1480,172,384,90
1271,1,2022-09-30T20:57:08.912033,4193386,-1654,720,-380,-11065,-662,1480,172,384,90
1272,1,2022-09-30T20:57:08.917187,4193391,-1654,720,-380,-11065,-662,1480,172,384,90
1273,1,2022-09-30T20:57:08.925389,4193397,-1653,717,-380,-11175,-628,1323,172,384,90
1274,1,2022-09-30T20:57:08.934386,4193409,-1653,717,-380,-11175,-628,1323,172,384,90
1275,1,2022-09-30T20:57:08.938942,4193414,-1653,717,-380,-11175,-628,1323,172,384,90
1276,1,2022-09-30T20:57:08.945395,4193419,-1648,720,-375,-11283,-677,1122,172,384,90
1277,1,2022-09-30T20:57:08.957328,4193431,-1648,720,-375,-11283,-677,1122,172,384,90
1278,1,2022-09-30T20:57:08.963388,4193437,-1649,722,-369,-11412,-725,886,172,384,90
1279,1,2022-09-30T20:57:08.972817,4193445,-1649,722,-369,-11412,-725,886,172,384,90
1280,1,2022-09-30T20:57:08.978434,4193453,-1649,722,-369,-11412,-725,886,172,384,90
1281,1,2022-09-30T20:57:08.984157,4193458,-1642,722,-375,-11537,-768,702,190,382,80
1282,1,2022-09-30T20:57:08.993067,4193467,-1642,722,-375,-11537,-768,702,190,382,80
1283,1,2022-09-30T20:57:09.001567,4193475,-1646,716,-364,-11629,-755,582,190,382,80
1284,1,2022-09-30T20:57:09.010207,4193484,-1646,716,-364,-11629,-755,582,190,382,80
1285,1,2022-09-30T20:57:09.015279,4193489,-1646,716,-364,-11629,-755,582,190,382,80
1286,1,2022-09-30T20:57:09.022219,4193496,-1650,706,-359,-11667,-777,550,190,382,80
1287,1,2022-09-30T20:57:09.030628,4193505,-1650,706,-359,-11667,-777,550,190,382,80
1288,1,2022-09-30T20:57:09.038545,4193513,-1650,706,-359,-11667,-777,550,190,382,80
1289,1,2022-09-30T20:57:09.044485,4193518,-1649,696,-353,-11668,-795,523,190,382,80
1290,1,2022-09-30T20:57:09.050805,4193524,-1649,696,-353,-11668,-795,523,190,382,80
1291,1,2022-09-30T20:57:09.057550,4193531,-1649,696,-353,-11668,-795,523,190,382,80
1292,1,2022-09-30T20:57:09.062742,4193537,-1652,694,-355,-11666,-743,485,190,382,80
1293,1,2022-09-30T20:57:09.072095,4193545,-1652,694,-355,-11666,-743,485,190,382,80
1294,1,2022-09-30T20:57:09.078735,4193553,-1652,694,-355,-11666,-743,485,190,382,80
1295,1,2022-09-30T20:57:09.085048,4193559,-1637,695,-358,-11654,-730,538,190,382,80
1296,1,2022-09-30T20:57:09.093770,4193567,-1637,695,-358,-11654,-730,538,190,382,80
1297,1,2022-09-30T20:57:09.099076,4193573,-1637,695,-358,-11654,-730,538,190,382,80
1298,1,2022-09-30T20:57:09.104357,4193579,-1656,697,-356,-11669,-659,561,190,382,80
1299,1,2022-09-30T20:57:09.111809,4193586,-1656,697,-356,-11669,-659,561,190,382,80
1300,1,2022-09-30T20:57:09.116715,4193591,-1656,697,-356,-11669,-659,561,190,382,80
1301,1,2022-09-30T20:57:09.121917,4193596,-1641,698,-363,-11664,-684,712,216,382,84
1302,1,2022-09-30T20:57:09.132395,4193605,-1641,698,-363,-11664,-684,712,216,382,84
1303,1,2022-09-30T20:57:09.138924,4193612,-1641,698,-363,-11664,-684,712,216,382,84
1304,1,2022-09-30T20:57:09.144912,4193618,-1661,697,-366,-11727,-567,752,216,382,84
1305,1,2022-09-30T20:57:09.155390,4193630,-1661,697,-366,-11727,-567,752,216,382,84
1306,1,2022-09-30T20:57:09.160954,4193635,-1653,692,-371,-11721,-580,928,216,382,84
1307,1,2022-09-30T20:57:09.168072,4193642,-1653,692,-371,-11721,-580,928,216,382,84
1308,1,2022-09-30T20:57:09.176351,4193650,-1653,692,-371,-11721,-580,928,216,382,84
1309,1,2022-09-30T20:57:09.182534,4193656,-1668,684,-368,-11738,-547,962,216,382,84
1310,1,2022-09-30T20:57:09.191088,4193665,-1668,684,-368,-11738,-547,962,216,382,84
1311,1,2022-09-30T20:57:09.197054,4193671,-1668,684,-368,-11738,-547,962,216,382,84
1312,1,2022-09-30T20:57:09.204877,4193678,-1663,685,-366,-11687,-604,1050,216,382,84
1313,1,2022-09-30T20:57:09.213943,4193688,-1663,685,-366,-11687,-604,1050,216,382,84
1314,1,2022-09-30T20:57:09.222021,4193693,-1663,685,-366,-11687,-604,1050,216,382,84
1315,1,2022-09-30T20:57:09.229725,4193702,-1659,690,-368,-11632,-600,1053,216,382,84
1316,1,2022-09-30T20:57:09.238155,4193712,-1659,690,-368,-11632,-600,1053,216,382,84
1317,1,2022-09-30T20:57:09.244967,4193718,-1659,690,-368,-11632,-600,1053,237,389,79
1318,1,2022-09-30T20:57:09.256209,4193729,-1659,690,-368,-11632,-600,1053,237,389,79
1319,1,2022-09-30T20:57:09.262336,4193736,-1656,702,-363,-11515,-606,1171,237,389,79
1320,1,2022-09-30T20:57:09.269218,4193741,-1656,702,-363,-11515,-606,1171,237,389,79
1321,1,2022-09-30T20:57:09.282719,4193756,-1662,707,-359,-11481,-616,1254,237,389,79
1322,1,2022-09-30T20:57:09.290300,4193764,-1662,707,-359,-11481,-616,1254,237,389,79
1323,1,2022-09-30T20:57:09.301129,4193774,-1647,713,-360,-11449,-607,1344,237,389,79
1324,1,2022-09-30T20:57:09.307733,4193781,-1647,713,-360,-11449,-607,1344,237,389,79
1325,1,2022-09-30T20:57:09.314591,4193788,-1647,713,-360,-11449,-607,1344,237,389,79
1326,1,2022-09-30T20:57:09.320558,4193794,-1647,719,-364,-11441,-535,1404,237,389,79
1327,1,2022-09-30T20:57:09.330091,4193804,-1647,719,-364,-11441,-535,1404,237,389,79
1328,1,2022-09-30T20:57:09.336774,4193811,-1647,719,-364,-11441,-535,1404,237,389,79
1329,1,2022-09-30T20:57:09.342100,4193816,-1616,715,-375,-11394,-514,1508,237,389,79
1330,1,2022-09-30T20:57:09.350066,4193823,-1616,715,-375,-11394,-514,1508,237,389,79
1331,1,2022-09-30T20:57:09.357320,4193831,-1616,715,-375,-11394,-514,1508,237,389,79
1332,1,2022-09-30T20:57:09.362915,4193837,-1633,704,-380,-11349,-388,1409,257,381,67
1333,1,2022-09-30T20:57:09.372477,4193845,-1633,704,-380,-11349,-388,1409,257,381,67
1334,1,2022-09-30T20:57:09.380326,4193854,-1654,709,-385,-11272,-250,1247,257,381,67
1335,1,2022-09-30T20:57:09.387917,4193862,-1654,709,-385,-11272,-250,1247,257,381,67
1336,1,2022-09-30T20:57:09.394817,4193868,-1654,709,-385,-11272,-250,1247,257,381,67
1337,1,2022-09-30T20:57:09.402069,4193876,-1666,710,-394,-11174,-168,1085,257,381,67
1338,1,2022-09-30T20:57:09.410586,4193885,-1666,710,-394,-11174,-168,1085,257,381,67
1339,1,2022-09-30T20:57:09.416903,4193891,-1666,710,-394,-11174,-168,1085,257,381,67
1340,1,2022-09-30T20:57:09.423426,4193896,-1672,719,-395,-11051,-145,978,257,381,67
1341,1,2022-09-30T20:57:09.433437,4193906,-1672,719,-395,-11051,-145,978,257,381,67
1342,1,2022-09-30T20:57:09.440638,4193914,-1672,723,-409,-10944,-153,933,257,381,67
1343,1,2022-09-30T20:57:09.448031,4193921,-1672,723,-409,-10944,-153,933,257,381,67
1344,1,2022-09-30T20:57:09.456835,4193931,-1672,723,-409,-10944,-153,933,257,381,67
1345,1,2022-09-30T20:57:09.462264,4193937,-1674,734,-420,-10855,-178,948,257,381,67
1346,1,2022-09-30T20:57:09.468886,4193943,-1674,734,-420,-10855,-178,948,257,381,67
1347,1,2022-09-30T20:57:09.480221,4193952,-1674,734,-420,-10855,-178,948,257,381,67
1348,1,2022-09-30T20:57:09.485812,4193960,-1672,741,-428,-10810,-210,1023,284,388,54
1349,1,2022-09-30T20:57:09.493036,4193968,-1672,741,-428,-10810,-210,1023,284,388,54
1350,1,2022-09-30T20:57:09.499284,4193973,-1672,741,-428,-10810,-210,1023,284,388,54
1351,1,2022-09-30T20:57:09.507773,4193982,-1674,750,-425,-10791,-250,1144,284,388,54
1352,1,2022-09-30T20:57:09.515430,4193989,-1674,750,-425,-10791,-250,1144,284,388,54
1353,1,2022-09-30T20:57:09.521273,4193995,-1670,767,-430,-10767,-296,1312,284,388,54
1354,1,2022-09-30T20:57:09.531113,4194006,-1670,767,-430,-10767,-296,1312,284,388,54
1355,1,2022-09-30T20:57:09.540525,4194014,-1686,781,-423,-10788,-350,1460,284,388,54
1356,1,2022-09-30T20:57:09.551027,4194024,-1686,781,-423,-10788,-350,1460,284,388,54
1357,1,2022-09-30T20:57:09.560512,4194034,-1703,807,-425,-10864,-484,1617,284,388,54
1358,1,2022-09-30T20:57:09.566628,4194040,-1703,807,-425,-10864,-484,1617,284,388,54
1359,1,2022-09-30T20:57:09.579089,4194053,-1703,807,-425,-10864,-484,1617,284,388,54
1360,1,2022-09-30T20:57:09.585066,4194059,-1705,811,-410,-10976,-605,1790,284,388,54
1361,1,2022-09-30T20:57:09.594563,4194067,-1705,811,-410,-10976,-605,1790,284,388,54
1362,1,2022-09-30T20:57:09.605515,4194079,-1656,794,-414,-11040,-801,1888,284,388,54
1363,1,2022-09-30T20:57:09.616555,4194089,-1656,794,-414,-11040,-801,1888,284,388,54
1364,1,2022-09-30T20:57:09.623149,4194097,-1629,790,-415,-11153,-852,1595,289,377,45
1365,1,2022-09-30T20:57:09.630145,4194104,-1629,790,-415,-11153,-852,1595,289,377,45
1366,1,2022-09-30T20:57:09.637722,4194111,-1629,790,-415,-11153,-852,1595,289,377,45
1367,1,2022-09-30T20:57:09.643916,4194117,-1628,768,-401,-11345,-854,957,289,377,45
1368,1,2022-09-30T20:57:09.659123,4194131,-1628,768,-401,-11345,-854,957,289,377,45
1369,1,2022-09-30T20:57:09.665200,4194139,-1612,758,-392,-11483,-978,254,289,377,45
1370,1,2022-09-30T20:57:09.673081,4194145,-1612,758,-392,-11483,-978,254,289,377,45
1371,1,2022-09-30T20:57:09.680760,4194154,-1620,727,-386,-11608,-1024,-489,289,377,45
1372,1,2022-09-30T20:57:09.689319,4194162,-1620,727,-386,-11608,-1024,-489,289,377,45
1373,1,2022-09-30T20:57:09.698914,4194171,-1620,727,-386,-11608,-1024,-489,289,377,45
1374,1,2022-09-30T20:57:09.706095,4194180,-1588,678,-373,-11538,-1118,-921,289,377,45
1375,1,2022-09-30T20:57:09.715561,4194190,-1588,678,-373,-11538,-1118,-921,289,377,45
1376,1,2022-09-30T20:57:09.721568,4194195,-1624,643,-344,-11409,-903,-1325,289,377,45
1377,1,2022-09-30T20:57:09.731761,4194206,-1624,643,-344,-11409,-903,-1325,289,377,45
1378,1,2022-09-30T20:57:09.738121,4194212,-1624,643,-344,-11409,-903,-1325,289,377,45
1379,1,2022-09-30T20:57:09.744019,4194217,-1617,608,-327,-11160,-994,-1414,309,387,29
1380,1,2022-09-30T20:57:09.755970,4194230,-1617,608,-327,-11160,-994,-1414,309,387,29
1381,1,2022-09-30T20:57:09.762441,4194236,-1622,564,-321,-11001,-986,-1654,309,387,29
1382,1,2022-09-30T20:57:09.769617,4194243,-1622,564,-321,-11001,-986,-1654,309,387,29
1383,1,2022-09-30T20:57:09.780013,4194254,-1606,546,-320,-10830,-1041,-1812,309,387,29
1384,1,2022-09-30T20:57:09.787928,4194263,-1606,546,-320,-10830,-1041,-1812,309,387,29
1385,1,2022-09-30T20:57:09.794632,4194269,-1606,546,-320,-10830,-1041,-1812,309,387,29
1386,1,2022-09-30T20:57:09.803759,4194277,-1646,530,-312,-10821,-967,-2027,309,387,29
1387,1,2022-09-30T20:57:09.812967,4194287,-1646,530,-312,-10821,-967,-2027,309,387,29
1388,1,2022-09-30T20:57:09.819479,4194292,-1646,530,-312,-10821,-967,-2027,309,387,29
1389,1,2022-09-30T20:57:09.827322,4194301,-1636,523,-311,-10844,-1145,-1919,309,387,29
1390,1,2022-09-30T20:57:09.837121,4194312,-1636,523,-311,-10844,-1145,-1919,309,387,29
1391,1,2022-09-30T20:57:09.842791,4194317,-1654,501,-310,-10884,-1157,-1735,309,387,29
1392,1,2022-09-30T20:57:09.852510,4194326,-1654,501,-310,-10884,-1157,-1735,309,387,29
1393,1,2022-09-30T20:57:09.861609,4194334,-1649,489,-307,-10822,-1210,-1390,330,388,8
1394,1,2022-09-30T20:57:09.871930,4194344,-1649,489,-307,-10822,-1210,-1390,330,388,8
1395,1,2022-09-30T20:57:09.879270,4194354,-1649,489,-307,-10822,-1210,-1390,330,388,8
1396,1,2022-09-30T20:57:09.885095,4194359,-1667,469,-292,-10699,-1213,-969,330,388,8
1397,1,2022-09-30T20:57:09.894126,4194367,-1667,469,-292,-10699,-1213,-969,330,388,8
1398,1,2022-09-30T20:57:09.903316,4194376,-1670,464,-280,-10493,-1339,-463,330,388,8
1399,1,2022-09-30T20:57:09.912313,4194385,-1670,464,-280,-10493,-1339,-463,330,388,8
1400,1,2022-09-30T20:57:09.921561,4194394,-1670,464,-280,-10493,-1339,-463,330,388,8
1401,1,2022-09-30T20:57:09.929149,4194403,-1678,474,-272,-10297,-1442,-62,330,388,8
1402,1,2022-09-30T20:57:09.939707,4194413,-1678,474,-272,-10297,-1442,-62,330,388,8
1403,1,2022-09-30T20:57:09.947165,4194420,-1646,489,-275,-10096,-1552,365,330,388,8
1404,1,2022-09-30T20:57:09.959893,4194433,-1646,489,-275,-10096,-1552,365,330,388,8
1405,1,2022-09-30T20:57:09.965653,4194440,-1631,495,-267,-9899,-1528,744,330,388,8
1406,1,2022-09-30T20:57:09.976014,4194449,-1631,495,-267,-9899,-1528,744,330,388,8
1407,1,2022-09-30T20:57:09.982467,4194456,-1627,504,-276,-9663,-1386,1034,344,386,-14
1408,1,2022-09-30T20:57:09.990894,4194465,-1627,504,-276,-9663,-1386,1034,344,386,-14
1409,1,2022-09-30T20:57:10.000001,4194473,-1627,504,-276,-9663,-1386,1034,344,386,-14
1410,1,2022-09-30T20:57:10.005966,4194480,-1633,520,-275,-9429,-1057,1210,344,386,-14
1411,1,2022-09-30T20:57:10.015501,4194490,-1633,520,-275,-9429,-1057,1210,344,386,-14
1412,1,2022-09-30T20:57:10.022909,4194496,-1634,531,-282,-9086,-777,1476,344,386,-14
1413,1,2022-09-30T20:57:10.030591,4194504,-1634,531,-282,-9086,-777,1476,344,386,-14
1414,1,2022-09-30T20:57:10.038948,4194513,-1634,531,-282,-9086,-777,1476,344,386,-14
1415,1,2022-09-30T20:57:10.044615,4194519,-1637,550,-288,-8692,-545,1697,344,386,-14
1416,1,2022-09-30T20:57:10.056516,4194530,-1637,550,-288,-8692,-545,1697,344,386,-14
1417,1,2022-09-30T20:57:10.063214,4194537,-1644,564,-308,-8310,-426,1807,344,386,-14
1418,1,2022-09-30T20:57:10.070918,4194544,-1644,564,-308,-8310,-426,1807,344,386,-14
1419,1,2022-09-30T20:57:10.076859,4194550,-1644,564,-308,-8310,-426,1807,344,386,-14
1420,1,2022-09-30T20:57:10.082673,4194556,-1643,587,-319,-7991,-376,1792,344,386,-14
1421,1,2022-09-30T20:57:10.088889,4194563,-1643,587,-319,-7991,-376,1792,344,386,-14
1422,1,2022-09-30T20:57:10.096226,4194570,-1643,587,-319,-7991,-376,1792,344,386,-14
1423,1,2022-09-30T20:57:10.102384,4194576,-1644,607,-329,-7749,-360,1690,344,386,-14
1424,1,2022-09-30T20:57:10.109690,4194584,-1644,607,-329,-7749,-360,1690,344,386,-14
1425,1,2022-09-30T20:57:10.117776,4194591,-1644,607,-329,-7749,-360,1690,344,386,-14
1426,1,2022-09-30T20:57:10.124435,4194598,-1640,620,-335,-7559,-366,1569,353,383,-21
1427,1,2022-09-30T20:57:10.132977,4194607,-1640,620,-335,-7559,-366,1569,353,383,-21
1428,1,2022-09-30T20:57:10.138719,4194613,-1640,620,-335,-7559,-366,1569,353,383,-21
1429,1,2022-09-30T20:57:10.144731,4194618,-1633,621,-341,-7403,-370,1419,353,383,-21
1430,1,2022-09-30T20:57:10.157900,4194631,-1633,621,-341,-7403,-370,1419,353,383,-21
1431,1,2022-09-30T20:57:10.163630,4194637,-1640,614,-343,-7278,-362,1195,353,383,-21
1432,1,2022-09-30T20:57:10.173408,4194647,-1640,614,-343,-7278,-362,1195,353,383,-21
1433,1,2022-09-30T20:57:10.180493,4194655,-1633,605,-343,-7144,-385,930,353,383,-21
1434,1,2022-09-30T20:57:10.188795,4194663,-1633,605,-343,-7144,-385,930,353,383,-21
1435,1,2022-09-30T20:57:10.196032,4194669,-1633,605,-343,-7144,-385,930,353,383,-21
1436,1,2022-09-30T20:57:10.203177,4194677,-1636,591,-351,-7010,-360,609,353,383,-21
1437,1,2022-09-30T20:57:10.212571,4194685,-1636,591,-351,-7010,-360,609,353,383,-21
1438,1,2022-09-30T20:57:10.221194,4194695,-1640,581,-352,-6805,-340,395,353,383,-21
1439,1,2022-09-30T20:57:10.228441,4194703,-1640,581,-352,-6805,-340,395,353,383,-21
1440,1,2022-09-30T20:57:10.233200,4194708,-1640,581,-352,-6805,-340,395,353,383,-21
1441,1,2022-09-30T20:57:10.238595,4194713,-1640,581,-352,-6805,-340,395,353,383,-21
1442,1,2022-09-30T20:57:10.244179,4194718,-1655,569,-346,-6566,-366,334,347,391,-39
1443,1,2022-09-30T20:57:10.254923,4194729,-1655,569,-346,-6566,-366,334,347,391,-39
1444,1,2022-09-30T20:57:10.261235,4194735,-1656,566,-346,-6311,-457,392,347,391,-39
1445,1,2022-09-30T20:57:10.270994,4194744,-1656,566,-346,-6311,-457,392,347,391,-39
1446,1,2022-09-30T20:57:10.277030,4194751,-1656,566,-346,-6311,-457,392,347,391,-39
1447,1,2022-09-30T20:57:10.283160,4194757,-1643,563,-349,-6074,-514,502,347,391,-39
1448,1,2022-09-30T20:57:10.288635,4194762,-1643,563,-349,-6074,-514,502,347,391,-39
1449,1,2022-09-30T20:57:10.295297,4194769,-1643,563,-349,-6074,-514,502,347,391,-39
