,imu,server_time,arduino_time,ax,ay,az,gx,gy,gz,mx,my,mz
0,0,2022-09-30T20:28:12.951506,2457277,-1885,60,-436,-781,-609,-349,186,390,-182
1,0,2022-09-30T20:28:12.974696,2457289,-1885,60,-436,-781,-609,-349,186,390,-182
2,0,2022-09-30T20:28:12.983287,2457309,-1881,69,-422,-991,-565,-377,186,390,-182
3,0,2022-09-30T20:28:12.989142,2457316,-1881,67,-431,-1125,-638,-269,186,390,-182
4,0,2022-09-30T20:28:12.999782,2457325,-1881,67,-431,-1125,-638,-269,186,390,-182
5,0,2022-09-30T20:28:13.007374,2457333,-1881,66,-436,-1392,-571,-101,186,390,-182
6,0,2022-09-30T20:28:13.015670,2457342,-1881,66,-436,-1392,-571,-101,186,390,-182
7,0,2022-09-30T20:28:13.022655,2457349,-1881,66,-436,-1392,-571,-101,186,390,-182
8,0,2022-09-30T20:28:13.029901,2457356,-1884,58,-438,-1442,-574,76,186,390,-182
9,0,2022-09-30T20:28:13.035465,2457362,-1884,58,-438,-1442,-574,76,186,390,-182
10,0,2022-09-30T20:28:13.041885,2457368,-1884,58,-438,-1442,-574,76,186,390,-182
11,0,2022-09-30T20:28:13.049402,2457375,-1880,53,-445,-1344,-628,65,187,387,-179
12,0,2022-09-30T20:28:13.059000,2457384,-1880,53,-445,-1344,-628,65,187,387,-179
13,0,2022-09-30T20:28:13.065563,2457392,-1880,53,-445,-1344,-628,65,187,387,-179
14,0,2022-09-30T20:28:13.071232,2457398,-1879,52,-444,-1210,-629,-195,187,387,-179
15,0,2022-09-30T20:28:13.079168,2457405,-1879,52,-444,-1210,-629,-195,187,387,-179
16,0,2022-09-30T20:28:13.085547,2457412,-1879,52,-444,-1210,-629,-195,187,387,-179
17,0,2022-09-30T20:28:13.092862,2457419,-1875,58,-440,-959,-490,-511,187,387,-179
18,0,2022-09-30T20:28:13.100698,2457427,-1875,58,-440,-959,-490,-511,187,387,-179
19,0,2022-09-30T20:28:13.108276,2457434,-1878,64,-433,-691,-434,-625,187,387,-179
20,0,2022-09-30T20:28:13.117410,2457444,-1878,64,-433,-691,-434,-625,187,387,-179
21,0,2022-09-30T20:28:13.124684,2457450,-1878,64,-433,-691,-434,-625,187,387,-179
22,0,2022-09-30T20:28:13.132430,2457458,-1885,70,-435,-795,-361,-562,187,387,-179
23,0,2022-09-30T20:28:13.140088,2457466,-1885,70,-435,-795,-361,-562,187,387,-179
24,0,2022-09-30T20:28:13.147553,2457473,-1885,70,-435,-795,-361,-562,187,387,-179
25,0,2022-09-30T20:28:13.155479,2457482,-1886,73,-437,-1101,-478,-261,187,387,-179
26,0,2022-09-30T20:28:13.163789,2457490,-1886,73,-437,-1101,-478,-261,187,387,-179
27,0,2022-09-30T20:28:13.171085,2457498,-1884,69,-448,-1358,-637,-61,186,394,-188
28,0,2022-09-30T20:28:13.179451,2457505,-1884,69,-448,-1358,-637,-61,186,394,-188
29,0,2022-09-30T20:28:13.187184,2457512,-1884,69,-448,-1358,-637,-61,186,394,-188
30,0,2022-09-30T20:28:13.195246,2457521,-1874,67,-452,-1432,-621,-148,186,394,-188
31,0,2022-09-30T20:28:13.203598,2457530,-1874,67,-452,-1432,-621,-148,186,394,-188
32,0,2022-09-30T20:28:13.212127,2457538,-1879,62,-450,-1125,-582,-298,186,394,-188
33,0,2022-09-30T20:28:13.219730,2457546,-1879,62,-450,-1125,-582,-298,186,394,-188
34,0,2022-09-30T20:28:13.226675,2457552,-1879,62,-450,-1125,-582,-298,186,394,-188
35,0,2022-09-30T20:28:13.232462,2457560,-1883,63,-452,-888,-445,-464,186,394,-188
36,0,2022-09-30T20:28:13.240315,2457567,-1883,63,-452,-888,-445,-464,186,394,-188
37,0,2022-09-30T20:28:13.246563,2457573,-1880,56,-446,-789,-514,-450,186,394,-188
38,0,2022-09-30T20:28:13.255873,2457583,-1880,56,-446,-789,-514,-450,186,394,-188
39,0,2022-09-30T20:28:13.262236,2457589,-1880,56,-446,-789,-514,-450,186,394,-188
40,0,2022-09-30T20:28:13.268332,2457595,-1881,60,-445,-942,-713,-372,186,394,-188
41,0,2022-09-30T20:28:13.277575,2457605,-1881,60,-445,-942,-713,-372,186,394,-188
42,0,2022-09-30T20:28:13.283443,2457611,-1881,60,-445,-942,-713,-372,186,394,-188
43,0,2022-09-30T20:28:13.295643,2457616,-1884,62,-435,-1148,-713,-281,184,394,-182
44,0,2022-09-30T20:28:13.305564,2457632,-1884,62,-435,-1148,-713,-281,184,394,-182
45,0,2022-09-30T20:28:13.314510,2457638,-1876,61,-425,-1110,-743,-181,184,394,-182
46,0,2022-09-30T20:28:13.322723,2457650,-1876,61,-425,-1110,-743,-181,184,394,-182
47,0,2022-09-30T20:28:13.328897,2457656,-1880,64,-430,-1055,-626,-243,184,394,-182
48,0,2022-09-30T20:28:13.337303,2457664,-1880,64,-430,-1055,-626,-243,184,394,-182
49,0,2022-09-30T20:28:13.343738,2457670,-1880,64,-430,-1055,-626,-243,184,394,-182
50,0,2022-09-30T20:28:13.350172,2457676,-1881,70,-440,-981,-360,-377,184,394,-182
51,0,2022-09-30T20:28:13.358388,2457686,-1881,70,-440,-981,-360,-377,184,394,-182
52,0,2022-09-30T20:28:13.364863,2457692,-1881,70,-440,-981,-360,-377,184,394,-182
53,0,2022-09-30T20:28:13.371158,2457698,-1884,67,-442,-712,-302,-425,184,394,-182
54,0,2022-09-30T20:28:13.377555,2457705,-1884,67,-442,-712,-302,-425,184,394,-182
55,0,2022-09-30T20:28:13.383346,2457710,-1884,67,-442,-712,-302,-425,184,394,-182
56,0,2022-09-30T20:28:13.392449,2457718,-1884,66,-448,-875,-436,-498,184,394,-182
57,0,2022-09-30T20:28:13.403299,2457730,-1884,66,-448,-875,-436,-498,184,394,-182
58,0,2022-09-30T20:28:13.412907,2457740,-1879,56,-448,-1159,-707,-445,184,394,-182
59,0,2022-09-30T20:28:13.421928,2457749,-1879,56,-448,-1159,-707,-445,184,394,-182
60,0,2022-09-30T20:28:13.429107,2457756,-1883,52,-437,-1223,-820,-343,185,393,-185
61,0,2022-09-30T20:28:13.440619,2457766,-1883,52,-437,-1223,-820,-343,185,393,-185
62,0,2022-09-30T20:28:13.447150,2457775,-1878,53,-436,-1068,-608,-375,185,393,-185
63,0,2022-09-30T20:28:13.459461,2457787,-1878,53,-436,-1068,-608,-375,185,393,-185
64,0,2022-09-30T20:28:13.465803,2457793,-1878,53,-436,-1068,-608,-375,185,393,-185
65,0,2022-09-30T20:28:13.474889,2457801,-1883,57,-442,-732,-419,-428,185,393,-185
66,0,2022-09-30T20:28:13.483327,2457810,-1883,57,-442,-732,-419,-428,185,393,-185
67,0,2022-09-30T20:28:13.489579,2457817,-1881,64,-440,-646,-348,-483,185,393,-185
68,0,2022-09-30T20:28:13.497791,2457825,-1881,64,-440,-646,-348,-483,185,393,-185
69,0,2022-09-30T20:28:13.503806,2457831,-1881,64,-440,-646,-348,-483,185,393,-185
70,0,2022-09-30T20:28:13.511979,2457839,-1877,66,-450,-776,-400,-465,185,393,-185
71,0,2022-09-30T20:28:13.519820,2457847,-1877,66,-450,-776,-400,-465,185,393,-185
72,0,2022-09-30T20:28:13.525882,2457852,-1877,66,-450,-776,-400,-465,185,393,-185
73,0,2022-09-30T20:28:13.531645,2457859,-1881,64,-450,-893,-603,-442,185,393,-185
74,0,2022-09-30T20:28:13.537728,2457865,-1881,64,-450,-893,-603,-442,185,393,-185
75,0,2022-09-30T20:28:13.543910,2457871,-1881,64,-450,-893,-603,-442,185,393,-185
76,0,2022-09-30T20:28:13.550214,2457877,-1886,64,-445,-945,-576,-557,192,398,-188
77,0,2022-09-30T20:28:13.557840,2457885,-1886,64,-445,-945,-576,-557,192,398,-188
78,0,2022-09-30T20:28:13.563237,2457890,-1886,64,-445,-945,-576,-557,192,398,-188
79,0,2022-09-30T20:28:13.570556,2457899,-1887,58,-438,-833,-583,-548,192,398,-188
80,0,2022-09-30T20:28:13.579386,2457907,-1887,58,-438,-833,-583,-548,192,398,-188
81,0,2022-09-30T20:28:13.585568,2457913,-1887,58,-438,-833,-583,-548,192,398,-188
82,0,2022-09-30T20:28:13.591456,2457919,-1892,55,-450,-729,-516,-494,192,398,-188
83,0,2022-09-30T20:28:13.598968,2457926,-1892,55,-450,-729,-516,-494,192,398,-188
84,0,2022-09-30T20:28:13.605316,2457932,-1892,55,-450,-729,-516,-494,192,398,-188
85,0,2022-09-30T20:28:13.611001,2457938,-1877,51,-444,-886,-553,-417,192,398,-188
86,0,2022-09-30T20:28:13.618196,2457946,-1877,51,-444,-886,-553,-417,192,398,-188
87,0,2022-09-30T20:28:13.624067,2457951,-1877,51,-444,-886,-553,-417,192,398,-188
88,0,2022-09-30T20:28:13.632013,2457959,-1889,51,-442,-1056,-704,-324,192,398,-188
89,0,2022-09-30T20:28:13.637500,2457965,-1889,51,-442,-1056,-704,-324,192,398,-188
90,0,2022-09-30T20:28:13.643254,2457970,-1889,51,-442,-1056,-704,-324,192,398,-188
91,0,2022-09-30T20:28:13.649115,2457976,-1881,47,-439,-1128,-709,-41,192,398,-188
92,0,2022-09-30T20:28:13.654936,2457981,-1881,47,-439,-1128,-709,-41,192,398,-188
93,0,2022-09-30T20:28:13.660623,2457988,-1881,47,-439,-1128,-709,-41,192,398,-188
94,0,2022-09-30T20:28:13.665965,2457994,-1887,51,-437,-1138,-573,-10,192,398,-188
95,0,2022-09-30T20:28:13.673493,2458001,-1887,51,-437,-1138,-573,-10,192,398,-188
96,0,2022-09-30T20:28:13.679183,2458006,-1887,51,-437,-1138,-573,-10,192,398,-188
97,0,2022-09-30T20:28:13.684852,2458012,-1887,51,-437,-1138,-573,-10,192,398,-188
98,0,2022-09-30T20:28:13.690410,2458017,-1888,62,-437,-899,-536,-201,190,388,-184
99,0,2022-09-30T20:28:13.705072,2458024,-1888,62,-437,-899,-536,-201,190,388,-184
100,0,2022-09-30T20:28:13.711255,2458038,-1880,63,-433,-723,-542,-519,190,388,-184
101,0,2022-09-30T20:28:13.716650,2458044,-1880,63,-433,-723,-542,-519,190,388,-184
102,0,2022-09-30T20:28:13.722287,2458050,-1880,63,-433,-723,-542,-519,190,388,-184
103,0,2022-09-30T20:28:13.727520,2458055,-1881,69,-428,-842,-494,-648,190,388,-184
104,0,2022-09-30T20:28:13.735222,2458062,-1881,69,-428,-842,-494,-648,190,388,-184
105,0,2022-09-30T20:28:13.741042,2458068,-1881,69,-428,-842,-494,-648,190,388,-184
106,0,2022-09-30T20:28:13.746546,2458074,-1879,61,-435,-950,-499,-358,190,388,-184
107,0,2022-09-30T20:28:13.752501,2458079,-1879,61,-435,-950,-499,-358,190,388,-184
108,0,2022-09-30T20:28:13.757659,2458085,-1879,61,-435,-950,-499,-358,190,388,-184
109,0,2022-09-30T20:28:13.763033,2458090,-1879,61,-435,-950,-499,-358,190,388,-184
110,0,2022-09-30T20:28:13.768795,2458096,-1884,54,-442,-1270,-503,-190,190,388,-184
111,0,2022-09-30T20:28:13.776684,2458103,-1884,54,-442,-1270,-503,-190,190,388,-184
112,0,2022-09-30T20:28:13.783215,2458110,-1884,54,-442,-1270,-503,-190,190,388,-184
113,0,2022-09-30T20:28:13.788914,2458116,-1884,54,-442,-1270,-503,-190,190,388,-184
114,0,2022-09-30T20:28:13.794779,2458122,-1884,54,-442,-1270,-503,-190,190,388,-184
115,0,2022-09-30T20:28:13.800448,2458128,-1884,54,-442,-1270,-503,-190,190,388,-184
116,0,2022-09-30T20:28:13.806049,2458133,-1884,54,-442,-1270,-503,-190,190,388,-184
117,0,2022-09-30T20:28:13.811733,2458139,-1879,51,-438,-1302,-718,-211,187,399,-181
118,0,2022-09-30T20:28:13.819188,2458146,-1879,51,-438,-1302,-718,-211,187,399,-181
119,0,2022-09-30T20:28:13.824796,2458152,-1879,51,-438,-1302,-718,-211,187,399,-181
120,0,2022-09-30T20:28:13.830443,2458158,-1873,44,-444,-1123,-696,-278,187,399,-181
121,0,2022-09-30T20:28:13.839138,2458163,-1873,44,-444,-1123,-696,-278,187,399,-181
122,0,2022-09-30T20:28:13.844979,2458172,-1873,44,-444,-1123,-696,-278,187,399,-181
123,0,2022-09-30T20:28:13.850316,2458177,-1881,51,-440,-956,-491,-400,187,399,-181
124,0,2022-09-30T20:28:13.858287,2458185,-1881,51,-440,-956,-491,-400,187,399,-181
125,0,2022-09-30T20:28:13.864025,2458191,-1881,51,-440,-956,-491,-400,187,399,-181
126,0,2022-09-30T20:28:13.869616,2458196,-1886,53,-447,-742,-372,-480,187,399,-181
127,0,2022-09-30T20:28:13.875389,2458203,-1886,53,-447,-742,-372,-480,187,399,-181
128,0,2022-09-30T20:28:13.881166,2458208,-1886,53,-447,-742,-372,-480,187,399,-181
129,0,2022-09-30T20:28:13.886905,2458214,-1887,63,-444,-757,-391,-465,187,399,-181
130,0,2022-09-30T20:28:13.893526,2458220,-1887,63,-444,-757,-391,-465,187,399,-181
131,0,2022-09-30T20:28:13.899172,2458226,-1887,63,-444,-757,-391,-465,187,399,-181
132,0,2022-09-30T20:28:13.904600,2458232,-1887,63,-444,-757,-391,-465,187,399,-181
133,0,2022-09-30T20:28:13.910778,2458237,-1884,67,-443,-1038,-518,-323,187,399,-181
134,0,2022-09-30T20:28:13.918220,2458245,-1884,67,-443,-1038,-518,-323,187,399,-181
135,0,2022-09-30T20:28:13.924321,2458252,-1884,67,-443,-1038,-518,-323,187,399,-181
136,0,2022-09-30T20:28:13.930703,2458258,-1880,59,-441,-1183,-752,-142,187,399,-181
137,0,2022-09-30T20:28:13.936239,2458263,-1880,59,-441,-1183,-752,-142,187,399,-181
138,0,2022-09-30T20:28:13.942088,2458269,-1880,59,-441,-1183,-752,-142,187,399,-181
139,0,2022-09-30T20:28:13.948162,2458275,-1880,54,-440,-1296,-719,-176,175,391,-181
140,0,2022-09-30T20:28:13.955506,2458283,-1880,54,-440,-1296,-719,-176,175,391,-181
141,0,2022-09-30T20:28:13.961107,2458289,-1880,54,-440,-1296,-719,-176,175,391,-181
142,0,2022-09-30T20:28:13.967036,2458294,-1883,54,-445,-1207,-615,-185,175,391,-181
143,0,2022-09-30T20:28:13.975123,2458300,-1883,54,-445,-1207,-615,-185,175,391,-181
144,0,2022-09-30T20:28:13.980856,2458308,-1883,54,-445,-1207,-615,-185,175,391,-181
145,0,2022-09-30T20:28:13.986772,2458313,-1883,54,-445,-1207,-615,-185,175,391,-181
146,0,2022-09-30T20:28:13.993040,2458319,-1884,53,-450,-983,-496,-269,175,391,-181
147,0,2022-09-30T20:28:13.998848,2458327,-1884,53,-450,-983,-496,-269,175,391,-181
148,0,2022-09-30T20:28:14.004969,2458332,-1884,53,-450,-983,-496,-269,175,391,-181
149,0,2022-09-30T20:28:14.011220,2458338,-1886,61,-441,-867,-449,-451,175,391,-181
150,0,2022-09-30T20:28:14.017565,2458344,-1886,61,-441,-867,-449,-451,175,391,-181
151,0,2022-09-30T20:28:14.023885,2458351,-1886,61,-441,-867,-449,-451,175,391,-181
152,0,2022-09-30T20:28:14.030229,2458357,-1884,58,-437,-747,-579,-534,175,391,-181
153,0,2022-09-30T20:28:14.038169,2458365,-1884,58,-437,-747,-579,-534,175,391,-181
154,0,2022-09-30T20:28:14.044072,2458372,-1884,58,-437,-747,-579,-534,175,391,-181
155,0,2022-09-30T20:28:14.050246,2458378,-1881,61,-437,-951,-606,-480,175,391,-181
156,0,2022-09-30T20:28:14.055574,2458383,-1881,61,-437,-951,-606,-480,175,391,-181
157,0,2022-09-30T20:28:14.061463,2458388,-1881,61,-437,-951,-606,-480,175,391,-181
158,0,2022-09-30T20:28:14.067453,2458394,-1881,60,-434,-1157,-606,-241,184,404,-176
159,0,2022-09-30T20:28:14.075345,2458402,-1881,60,-434,-1157,-606,-241,184,404,-176
160,0,2022-09-30T20:28:14.081369,2458408,-1881,60,-434,-1157,-606,-241,184,404,-176
161,0,2022-09-30T20:28:14.087922,2458415,-1883,54,-435,-1281,-634,-98,184,404,-176
162,0,2022-09-30T20:28:14.096486,2458424,-1883,54,-435,-1281,-634,-98,184,404,-176
163,0,2022-09-30T20:28:14.102615,2458430,-1883,54,-435,-1281,-634,-98,184,404,-176
164,0,2022-09-30T20:28:14.108677,2458436,-1884,54,-438,-1248,-611,-194,184,404,-176
165,0,2022-09-30T20:28:14.118028,2458441,-1884,54,-438,-1248,-611,-194,184,404,-176
166,0,2022-09-30T20:28:14.123513,2458451,-1884,54,-438,-1248,-611,-194,184,404,-176
167,0,2022-09-30T20:28:14.130829,2458458,-1882,50,-438,-1061,-578,-368,184,404,-176
168,0,2022-09-30T20:28:14.136587,2458464,-1882,50,-438,-1061,-578,-368,184,404,-176
169,0,2022-09-30T20:28:14.142154,2458469,-1882,50,-438,-1061,-578,-368,184,404,-176
170,0,2022-09-30T20:28:14.147681,2458475,-1875,55,-442,-864,-517,-439,184,404,-176
171,0,2022-09-30T20:28:14.157869,2458484,-1875,55,-442,-864,-517,-439,184,404,-176
172,0,2022-09-30T20:28:14.163028,2458490,-1875,55,-442,-864,-517,-439,184,404,-176
173,0,2022-09-30T20:28:14.168869,2458496,-1883,53,-444,-878,-458,-371,184,404,-176
174,0,2022-09-30T20:28:14.174156,2458502,-1883,53,-444,-878,-458,-371,184,404,-176
175,0,2022-09-30T20:28:14.179860,2458507,-1883,53,-444,-878,-458,-371,184,404,-176
176,0,2022-09-30T20:28:14.185522,2458513,-1883,53,-444,-878,-458,-371,184,404,-176
177,0,2022-09-30T20:28:14.191449,2458518,-1884,57,-443,-928,-442,-229,182,394,-180
178,0,2022-09-30T20:28:14.199160,2458526,-1884,57,-443,-928,-442,-229,182,394,-180
179,0,2022-09-30T20:28:14.205000,2458532,-1884,57,-443,-928,-442,-229,182,394,-180
180,0,2022-09-30T20:28:14.210859,2458537,-1879,61,-439,-996,-593,-184,182,394,-180
181,0,2022-09-30T20:28:14.219069,2458546,-1879,61,-439,-996,-593,-184,182,394,-180
182,0,2022-09-30T20:28:14.224961,2458552,-1879,61,-439,-996,-593,-184,182,394,-180
183,0,2022-09-30T20:28:14.231041,2458558,-1882,64,-440,-1163,-727,-270,182,394,-180
184,0,2022-09-30T20:28:14.239189,2458566,-1882,64,-440,-1163,-727,-270,182,394,-180
185,0,2022-09-30T20:28:14.245394,2458572,-1882,64,-440,-1163,-727,-270,182,394,-180
186,0,2022-09-30T20:28:14.251220,2458578,-1882,61,-430,-1136,-721,-290,182,394,-180
187,0,2022-09-30T20:28:14.259150,2458586,-1882,61,-430,-1136,-721,-290,182,394,-180
188,0,2022-09-30T20:28:14.265137,2458592,-1882,61,-430,-1136,-721,-290,182,394,-180
189,0,2022-09-30T20:28:14.271116,2458598,-1876,55,-432,-1010,-608,-287,182,394,-180
190,0,2022-09-30T20:28:14.277312,2458603,-1876,55,-432,-1010,-608,-287,182,394,-180
191,0,2022-09-30T20:28:14.283043,2458610,-1876,55,-432,-1010,-608,-287,182,394,-180
192,0,2022-09-30T20:28:14.291526,2458618,-1887,56,-441,-1067,-405,-378,182,394,-180
193,0,2022-09-30T20:28:14.299451,2458627,-1887,56,-441,-1067,-405,-378,182,394,-180
194,0,2022-09-30T20:28:14.306199,2458633,-1887,56,-441,-1067,-405,-378,182,394,-180
195,0,2022-09-30T20:28:14.314836,2458642,-1876,64,-445,-974,-333,-322,182,394,-180
196,0,2022-09-30T20:28:14.323072,2458650,-1876,64,-445,-974,-333,-322,182,394,-180
197,0,2022-09-30T20:28:14.330576,2458657,-1891,62,-454,-957,-436,-324,184,386,-182
198,0,2022-09-30T20:28:14.337938,2458664,-1891,62,-454,-957,-436,-324,184,386,-182
199,0,2022-09-30T20:28:14.344002,2458671,-1891,62,-454,-957,-436,-324,184,386,-182
200,0,2022-09-30T20:28:14.351389,2458679,-1886,72,-449,-1088,-302,-439,184,386,-182
201,0,2022-09-30T20:28:14.360571,2458688,-1886,72,-449,-1088,-302,-439,184,386,-182
202,0,2022-09-30T20:28:14.366364,2458693,-1886,72,-449,-1088,-302,-439,184,386,-182
203,0,2022-09-30T20:28:14.373965,2458701,-1880,63,-442,-947,-820,-281,184,386,-182
204,0,2022-09-30T20:28:14.385756,2458712,-1880,63,-442,-947,-820,-281,184,386,-182
205,0,2022-09-30T20:28:14.400145,2458727,-1874,56,-436,-1327,-954,-392,184,386,-182
206,0,2022-09-30T20:28:14.411843,2458737,-1866,50,-432,-1554,-807,-312,184,386,-182
207,0,2022-09-30T20:28:14.429373,2458757,-1879,45,-449,-1029,-621,-129,184,386,-182
208,0,2022-09-30T20:28:14.441363,2458767,-1879,45,-449,-1029,-621,-129,184,386,-182
209,0,2022-09-30T20:28:14.452838,2458779,-1884,49,-448,-989,-231,-255,183,395,-183
210,0,2022-09-30T20:28:14.469372,2458796,-1893,61,-456,-696,-212,-416,183,395,-183
211,0,2022-09-30T20:28:14.487518,2458812,-1893,61,-456,-696,-212,-416,183,395,-183
212,0,2022-09-30T20:28:14.500152,2458827,-1889,62,-449,-538,-501,-444,183,395,-183
213,0,2022-09-30T20:28:14.515157,2458840,-1880,73,-446,-813,-635,-481,183,395,-183
214,0,2022-09-30T20:28:14.535876,2458862,-1878,77,-431,-1215,-708,-281,183,395,-183
215,0,2022-09-30T20:28:14.550321,2458877,-1877,67,-440,-1313,-812,-20,183,395,-183
216,0,2022-09-30T20:28:14.559874,2458887,-1877,67,-440,-1313,-812,-20,183,395,-183
217,0,2022-09-30T20:28:14.566522,2458894,-1877,67,-440,-1313,-812,-20,183,395,-183
218,0,2022-09-30T20:28:14.577761,2458905,-1889,58,-443,-1537,-626,-118,183,395,-183
219,0,2022-09-30T20:28:14.585097,2458912,-1889,58,-443,-1537,-626,-118,183,395,-183
220,0,2022-09-30T20:28:14.592509,2458919,-1886,55,-444,-1192,-465,-243,195,399,-181
221,0,2022-09-30T20:28:14.604155,2458932,-1886,55,-444,-1192,-465,-243,195,399,-181
222,0,2022-09-30T20:28:14.609906,2458937,-1881,46,-444,-814,-506,-349,195,399,-181
223,0,2022-09-30T20:28:14.622696,2458947,-1881,46,-444,-814,-506,-349,195,399,-181
224,0,2022-09-30T20:28:14.628800,2458956,-1881,51,-452,-981,-456,-425,195,399,-181
225,0,2022-09-30T20:28:14.640326,2458968,-1881,51,-452,-981,-456,-425,195,399,-181
226,0,2022-09-30T20:28:14.647360,2458974,-1881,51,-452,-981,-456,-425,195,399,-181
227,0,2022-09-30T20:28:14.658094,2458985,-1885,56,-445,-1067,-516,-294,195,399,-181
228,0,2022-09-30T20:28:14.668845,2458994,-1885,56,-445,-1067,-516,-294,195,399,-181
229,0,2022-09-30T20:28:14.677927,2459005,-1881,64,-444,-1014,-638,-248,195,399,-181
230,0,2022-09-30T20:28:14.693168,2459020,-1882,68,-440,-1051,-703,-433,195,399,-181
231,0,2022-09-30T20:28:14.703372,2459031,-1882,68,-440,-1051,-703,-433,195,399,-181
232,0,2022-09-30T20:28:14.711952,2459040,-1877,68,-428,-1094,-682,-455,182,394,-180
233,0,2022-09-30T20:28:14.720571,2459048,-1877,68,-428,-1094,-682,-455,182,394,-180
234,0,2022-09-30T20:28:14.726244,2459054,-1877,68,-428,-1094,-682,-455,182,394,-180
235,0,2022-09-30T20:28:14.736163,2459064,-1874,57,-433,-1051,-568,-280,182,394,-180
236,0,2022-09-30T20:28:14.744816,2459072,-1874,57,-433,-1051,-568,-280,182,394,-180
237,0,2022-09-30T20:28:14.752866,2459080,-1885,51,-447,-1164,-376,-250,182,394,-180
238,0,2022-09-30T20:28:14.762793,2459090,-1885,51,-447,-1164,-376,-250,182,394,-180
239,0,2022-09-30T20:28:14.772682,2459101,-1887,50,-453,-1047,-429,-289,182,394,-180
240,0,2022-09-30T20:28:14.782661,2459110,-1887,50,-453,-1047,-429,-289,182,394,-180
241,0,2022-09-30T20:28:14.792925,2459119,-1888,50,-456,-902,-580,-399,182,394,-180
242,0,2022-09-30T20:28:14.801930,2459129,-1888,50,-456,-902,-580,-399,182,394,-180
243,0,2022-09-30T20:28:14.807318,2459134,-1888,50,-456,-902,-580,-399,182,394,-180
244,0,2022-09-30T20:28:14.812597,2459141,-1884,58,-448,-938,-565,-418,182,394,-180
245,0,2022-09-30T20:28:14.819421,2459147,-1884,58,-448,-938,-565,-418,182,394,-180
246,0,2022-09-30T20:28:14.827834,2459152,-1884,58,-448,-938,-565,-418,182,394,-180
247,0,2022-09-30T20:28:14.837070,2459160,-1879,61,-436,-888,-682,-251,182,394,-180
248,0,2022-09-30T20:28:14.848874,2459176,-1879,70,-432,-1054,-604,-253,186,394,-182
249,0,2022-09-30T20:28:14.870548,2459195,-1879,70,-432,-1054,-604,-253,186,394,-182
250,0,2022-09-30T20:28:14.880657,2459208,-1882,65,-437,-1137,-559,-291,186,394,-182
251,0,2022-09-30T20:28:14.890632,2459217,-1882,60,-446,-1028,-557,-326,186,394,-182
252,0,2022-09-30T20:28:14.905396,2459233,-1882,60,-446,-1028,-557,-326,186,394,-182
253,0,2022-09-30T20:28:14.911851,2459239,-1886,56,-456,-1037,-455,-334,186,394,-182
254,0,2022-09-30T20:28:14.919844,2459247,-1886,56,-456,-1037,-455,-334,186,394,-182
255,0,2022-09-30T20:28:14.925130,2459252,-1886,56,-456,-1037,-455,-334,186,394,-182
256,0,2022-09-30T20:28:14.937287,2459258,-1891,56,-455,-968,-363,-306,186,394,-182
257,0,2022-09-30T20:28:14.948340,2459276,-1886,60,-456,-870,-464,-295,186,394,-182
258,0,2022-09-30T20:28:14.956230,2459284,-1886,60,-456,-870,-464,-295,186,394,-182
259,0,2022-09-30T20:28:14.962160,2459289,-1886,60,-456,-870,-464,-295,186,394,-182
260,0,2022-09-30T20:28:14.967851,2459295,-1884,60,-442,-957,-737,-386,186,394,-182
261,0,2022-09-30T20:28:14.977571,2459304,-1884,60,-442,-957,-737,-386,186,394,-180
262,0,2022-09-30T20:28:14.983989,2459312,-1884,60,-442,-957,-737,-386,186,394,-180
263,0,2022-09-30T20:28:14.989425,2459317,-1874,62,-432,-1125,-899,-393,186,394,-180
264,0,2022-09-30T20:28:15.000683,2459326,-1874,62,-432,-1125,-899,-393,186,394,-180
265,0,2022-09-30T20:28:15.007116,2459334,-1874,62,-432,-1125,-899,-393,186,394,-180
266,0,2022-09-30T20:28:15.014703,2459340,-1870,58,-437,-1130,-763,-245,186,394,-180
267,0,2022-09-30T20:28:15.024021,2459352,-1870,58,-437,-1130,-763,-245,186,394,-180
268,0,2022-09-30T20:28:15.035264,2459362,-1877,55,-441,-1058,-420,-205,186,394,-180
269,0,2022-09-30T20:28:15.046444,2459370,-1877,55,-441,-1058,-420,-205,186,394,-180
270,0,2022-09-30T20:28:15.055948,2459382,-1890,58,-444,-951,-239,-277,186,394,-180
271,0,2022-09-30T20:28:15.065521,2459393,-1890,58,-444,-951,-239,-277,186,394,-180
272,0,2022-09-30T20:28:15.073109,2459400,-1890,59,-446,-810,-383,-397,186,394,-180
273,0,2022-09-30T20:28:15.082942,2459410,-1890,59,-446,-810,-383,-397,186,394,-180
274,0,2022-09-30T20:28:15.088858,2459416,-1887,63,-445,-853,-630,-485,193,391,-177
275,0,2022-09-30T20:28:15.096564,2459423,-1887,63,-445,-853,-630,-485,193,391,-177
276,0,2022-09-30T20:28:15.104045,2459430,-1887,63,-445,-853,-630,-485,193,391,-177
277,0,2022-09-30T20:28:15.111166,2459439,-1885,64,-432,-1033,-661,-443,193,391,-177
278,0,2022-09-30T20:28:15.119986,2459448,-1885,64,-432,-1033,-661,-443,193,391,-177
279,0,2022-09-30T20:28:15.126400,2459453,-1885,64,-432,-1033,-661,-443,193,391,-177
280,0,2022-09-30T20:28:15.135764,2459462,-1877,66,-444,-1147,-615,-228,193,391,-177
281,0,2022-09-30T20:28:15.148289,2459472,-1877,66,-444,-1147,-615,-228,193,391,-177
282,0,2022-09-30T20:28:15.155692,2459483,-1881,62,-442,-1275,-632,-99,193,391,-177
283,0,2022-09-30T20:28:15.165949,2459492,-1881,62,-442,-1275,-632,-99,193,391,-177
284,0,2022-09-30T20:28:15.176638,2459503,-1884,61,-449,-1309,-602,-151,193,391,-177
285,0,2022-09-30T20:28:15.191929,2459518,-1875,51,-445,-1068,-701,-322,193,391,-177
286,0,2022-09-30T20:28:15.205996,2459533,-1875,51,-445,-1068,-701,-322,193,391,-177
287,0,2022-09-30T20:28:15.214792,2459541,-1876,44,-447,-914,-629,-554,193,391,-177
288,0,2022-09-30T20:28:15.239208,2459553,-1876,44,-447,-914,-629,-554,193,391,-177
289,0,2022-09-30T20:28:15.253256,2459580,-1891,61,-445,-735,-342,-240,192,392,-176
290,0,2022-09-30T20:28:15.261037,2459586,-1891,61,-445,-735,-342,-240,192,392,-176
291,0,2022-09-30T20:28:15.266884,2459594,-1891,61,-445,-735,-342,-240,192,392,-176
292,0,2022-09-30T20:28:15.278030,2459606,-1891,68,-436,-934,-582,-278,192,392,-176
293,0,2022-09-30T20:28:15.285982,2459613,-1891,68,-436,-934,-582,-278,192,392,-176
294,0,2022-09-30T20:28:15.297541,2459622,-1876,72,-436,-1186,-834,-412,192,392,-176
295,0,2022-09-30T20:28:15.305828,2459633,-1876,72,-436,-1186,-834,-412,192,392,-176
296,0,2022-09-30T20:28:15.313298,2459640,-1864,59,-428,-1308,-860,-292,192,392,-176
297,0,2022-09-30T20:28:15.321167,2459648,-1864,59,-428,-1308,-860,-292,192,392,-176
298,0,2022-09-30T20:28:15.327648,2459655,-1864,59,-428,-1308,-860,-292,192,392,-176
299,0,2022-09-30T20:28:15.336162,2459663,-1874,53,-444,-1279,-533,-131,192,392,-176
300,0,2022-09-30T20:28:15.344192,2459671,-1874,53,-444,-1279,-533,-131,192,392,-176
301,0,2022-09-30T20:28:15.353844,2459681,-1891,47,-453,-1129,-185,-132,181,395,-181
302,0,2022-09-30T20:28:15.361080,2459688,-1891,47,-453,-1129,-185,-132,181,395,-181
303,0,2022-09-30T20:28:15.366921,2459694,-1891,47,-453,-1129,-185,-132,181,395,-181
304,0,2022-09-30T20:28:15.377260,2459705,-1896,52,-458,-776,-228,-327,181,395,-181
305,0,2022-09-30T20:28:15.384664,2459712,-1896,52,-458,-776,-228,-327,181,395,-181
306,0,2022-09-30T20:28:15.391449,2459718,-1886,60,-456,-742,-593,-559,181,395,-181
307,0,2022-09-30T20:28:15.401559,2459729,-1886,60,-456,-742,-593,-559,181,395,-181
308,0,2022-09-30T20:28:15.407298,2459735,-1886,60,-456,-742,-593,-559,181,395,-181
309,0,2022-09-30T20:28:15.416115,2459744,-1879,69,-442,-971,-807,-522,181,395,-181
310,0,2022-09-30T20:28:15.426069,2459753,-1879,69,-442,-971,-807,-522,181,395,-181
311,0,2022-09-30T20:28:15.433831,2459761,-1873,75,-431,-1177,-778,-218,181,395,-181
312,0,2022-09-30T20:28:15.442395,2459769,-1873,75,-431,-1177,-778,-218,181,395,-181
313,0,2022-09-30T20:28:15.449761,2459776,-1873,72,-442,-1278,-585,-51,181,395,-181
314,0,2022-09-30T20:28:15.460564,2459788,-1873,72,-442,-1278,-585,-51,181,395,-181
315,0,2022-09-30T20:28:15.466661,2459794,-1873,72,-442,-1278,-585,-51,181,395,-181
316,0,2022-09-30T20:28:15.475100,2459802,-1889,68,-446,-1310,-405,-166,181,395,-181
317,0,2022-09-30T20:28:15.482996,2459810,-1889,68,-446,-1310,-405,-166,181,395,-181
318,0,2022-09-30T20:28:15.488866,2459816,-1887,58,-444,-1022,-463,-427,193,395,-181
319,0,2022-09-30T20:28:15.496143,2459824,-1887,58,-444,-1022,-463,-427,193,393,-183
320,0,2022-09-30T20:28:15.502780,2459831,-1887,58,-444,-1022,-463,-427,193,393,-183
321,0,2022-09-30T20:28:15.508565,2459836,-1887,58,-444,-1022,-463,-427,193,393,-183
322,0,2022-09-30T20:28:15.516452,2459843,-1883,50,-446,-905,-686,-572,193,393,-183
323,0,2022-09-30T20:28:15.524554,2459851,-1883,50,-446,-905,-686,-572,193,393,-183
324,0,2022-09-30T20:28:15.532887,2459860,-1874,43,-448,-1097,-716,-509,193,393,-183
325,0,2022-09-30T20:28:15.540570,2459868,-1874,43,-448,-1097,-716,-509,193,393,-183
326,0,2022-09-30T20:28:15.547735,2459875,-1874,43,-448,-1097,-716,-509,193,393,-183
327,0,2022-09-30T20:28:15.556575,2459884,-1875,48,-445,-1134,-600,-207,193,393,-183
328,0,2022-09-30T20:28:15.563908,2459891,-1875,48,-445,-1134,-600,-207,193,393,-183
329,0,2022-09-30T20:28:15.571190,2459896,-1888,54,-447,-931,-458,-36,193,393,-183
330,0,2022-09-30T20:28:15.581008,2459908,-1888,54,-447,-931,-458,-36,193,393,-183
331,0,2022-09-30T20:28:15.586608,2459914,-1888,54,-447,-931,-458,-36,193,393,-183
332,0,2022-09-30T20:28:15.592327,2459920,-1891,66,-443,-804,-481,-198,193,393,-183
333,0,2022-09-30T20:28:15.603001,2459930,-1891,66,-443,-804,-481,-198,193,393,-183
334,0,2022-09-30T20:28:15.608917,2459936,-1875,73,-433,-808,-676,-522,189,397,-183
335,0,2022-09-30T20:28:15.620110,2459947,-1875,73,-433,-808,-676,-522,189,397,-187
336,0,2022-09-30T20:28:15.626370,2459954,-1875,73,-433,-808,-676,-522,189,397,-187
337,0,2022-09-30T20:28:15.633098,2459961,-1884,74,-428,-921,-760,-584,189,397,-187
338,0,2022-09-30T20:28:15.640385,2459967,-1884,74,-428,-921,-760,-584,189,397,-187
339,0,2022-09-30T20:28:15.647063,2459974,-1884,74,-428,-921,-760,-584,189,397,-187
340,0,2022-09-30T20:28:15.655154,2459982,-1880,75,-434,-1117,-433,-363,189,397,-187
341,0,2022-09-30T20:28:15.662599,2459990,-1880,75,-434,-1117,-433,-363,189,397,-187
342,0,2022-09-30T20:28:15.668556,2459996,-1880,75,-434,-1117,-433,-363,189,397,-187
343,0,2022-09-30T20:28:15.677933,2460005,-1883,66,-441,-1224,-320,-10,189,397,-187
344,0,2022-09-30T20:28:15.685136,2460013,-1883,66,-441,-1224,-320,-10,189,397,-187
345,0,2022-09-30T20:28:15.690581,2460017,-1886,54,-451,-1334,-585,-25,189,397,-187
346,0,2022-09-30T20:28:15.697097,2460024,-1886,54,-451,-1334,-585,-25,189,397,-187
347,0,2022-09-30T20:28:15.705293,2460033,-1886,54,-451,-1334,-585,-25,189,397,-187
348,0,2022-09-30T20:28:15.712856,2460041,-1880,44,-450,-1410,-842,-366,189,397,-187
349,0,2022-09-30T20:28:15.721592,2460047,-1880,44,-450,-1410,-842,-366,189,397,-187
350,0,2022-09-30T20:28:15.728039,2460055,-1880,44,-450,-1410,-842,-366,189,397,-187
351,0,2022-09-30T20:28:15.736707,2460064,-1876,44,-448,-1076,-790,-545,189,397,-187
352,0,2022-09-30T20:28:15.743967,2460071,-1876,44,-448,-1076,-790,-545,189,397,-187
353,0,2022-09-30T20:28:15.752531,2460080,-1871,53,-442,-810,-506,-471,186,394,-178
354,0,2022-09-30T20:28:15.761129,2460088,-1871,53,-442,-810,-506,-471,186,394,-178
355,0,2022-09-30T20:28:15.766212,2460094,-1871,53,-442,-810,-506,-471,186,394,-178
356,0,2022-09-30T20:28:15.774448,2460102,-1881,63,-440,-845,-356,-309,186,394,-178
357,0,2022-09-30T20:28:15.781051,2460108,-1881,63,-440,-845,-356,-309,186,394,-178
358,0,2022-09-30T20:28:15.786434,2460113,-1881,63,-440,-845,-356,-309,186,394,-178
359,0,2022-09-30T20:28:15.792926,2460121,-1889,72,-441,-993,-380,-235,186,394,-178
360,0,2022-09-30T20:28:15.802800,2460130,-1889,72,-441,-993,-380,-235,186,394,-178
361,0,2022-09-30T20:28:15.808111,2460136,-1889,72,-441,-993,-380,-235,186,394,-178
362,0,2022-09-30T20:28:15.814898,2460142,-1884,73,-442,-938,-587,-290,186,394,-178
363,0,2022-09-30T20:28:15.821759,2460149,-1884,73,-442,-938,-587,-290,186,394,-178
364,0,2022-09-30T20:28:15.827193,2460154,-1884,73,-442,-938,-587,-290,186,394,-178
365,0,2022-09-30T20:28:15.834181,2460162,-1884,73,-442,-938,-587,-290,186,394,-178
366,0,2022-09-30T20:28:15.839705,2460167,-1884,73,-442,-938,-587,-290,186,394,-178
367,0,2022-09-30T20:28:15.845118,2460173,-1884,73,-442,-938,-587,-290,186,394,-178
368,0,2022-09-30T20:28:15.851427,2460179,-1877,60,-442,-1196,-678,-457,186,394,-178
369,0,2022-09-30T20:28:15.858106,2460186,-1877,60,-442,-1196,-678,-457,186,394,-178
370,0,2022-09-30T20:28:15.863526,2460191,-1877,60,-442,-1196,-678,-457,186,394,-178
371,0,2022-09-30T20:28:15.868928,2460196,-1883,53,-439,-1197,-570,-257,186,394,-178
372,0,2022-09-30T20:28:15.875067,2460203,-1883,53,-439,-1197,-570,-257,185,389,-183
373,0,2022-09-30T20:28:15.880824,2460208,-1883,53,-439,-1197,-570,-257,185,389,-183
374,0,2022-09-30T20:28:15.886532,2460215,-1883,53,-439,-1197,-570,-257,185,389,-183
375,0,2022-09-30T20:28:15.892748,2460220,-1887,51,-445,-1155,-511,-181,185,389,-183
376,0,2022-09-30T20:28:15.901843,2460229,-1887,51,-445,-1155,-511,-181,185,389,-183
377,0,2022-09-30T20:28:15.907194,2460234,-1887,51,-445,-1155,-511,-181,185,389,-183
378,0,2022-09-30T20:28:15.913946,2460241,-1886,55,-447,-1029,-573,-278,185,389,-183
379,0,2022-09-30T20:28:15.922062,2460249,-1886,55,-447,-1029,-573,-278,185,389,-183
380,0,2022-09-30T20:28:15.928344,2460256,-1886,55,-447,-1029,-573,-278,185,389,-183
381,0,2022-09-30T20:28:15.936115,2460263,-1879,57,-447,-844,-631,-393,185,389,-183
382,0,2022-09-30T20:28:15.943445,2460270,-1879,57,-447,-844,-631,-393,185,389,-183
383,0,2022-09-30T20:28:15.954096,2460281,-1878,60,-440,-823,-586,-468,185,389,-183
384,0,2022-09-30T20:28:15.964328,2460292,-1878,60,-440,-823,-586,-468,185,389,-183
385,0,2022-09-30T20:28:15.971598,2460299,-1878,71,-435,-926,-462,-423,185,389,-183
386,0,2022-09-30T20:28:15.978746,2460306,-1878,71,-435,-926,-462,-423,185,389,-183
387,0,2022-09-30T20:28:15.983838,2460311,-1878,71,-435,-926,-462,-423,185,389,-183
388,0,2022-09-30T20:28:15.990106,2460318,-1883,70,-440,-1018,-490,-290,183,393,-177
389,0,2022-09-30T20:28:15.996733,2460324,-1883,70,-440,-1018,-490,-290,183,393,-177
390,0,2022-09-30T20:28:16.002363,2460329,-1883,70,-440,-1018,-490,-290,183,393,-177
391,0,2022-09-30T20:28:16.007368,2460336,-1883,70,-440,-1018,-490,-290,183,393,-177
392,0,2022-09-30T20:28:16.013965,2460341,-1887,66,-443,-1158,-603,-214,183,393,-177
393,0,2022-09-30T20:28:16.020516,2460348,-1887,66,-443,-1158,-603,-214,183,393,-177
394,0,2022-09-30T20:28:16.025636,2460353,-1887,66,-443,-1158,-603,-214,183,393,-177
395,0,2022-09-30T20:28:16.031953,2460360,-1884,54,-441,-1223,-702,-221,183,393,-177
396,0,2022-09-30T20:28:16.038522,2460366,-1884,54,-441,-1223,-702,-221,183,393,-177
397,0,2022-09-30T20:28:16.043897,2460371,-1884,54,-441,-1223,-702,-221,183,393,-177
398,0,2022-09-30T20:28:16.052106,2460380,-1878,51,-444,-1129,-697,-312,183,393,-177
399,0,2022-09-30T20:28:16.058719,2460386,-1878,51,-444,-1129,-697,-312,183,393,-177
400,0,2022-09-30T20:28:16.064457,2460392,-1878,51,-444,-1129,-697,-312,183,393,-177
401,0,2022-09-30T20:28:16.071983,2460398,-1878,52,-443,-1037,-561,-426,183,393,-177
402,0,2022-09-30T20:28:16.081077,2460408,-1878,52,-443,-1037,-561,-426,183,393,-177
403,0,2022-09-30T20:28:16.087312,2460414,-1878,52,-443,-1037,-561,-426,183,393,-177
404,0,2022-09-30T20:28:16.094683,2460422,-1877,59,-447,-948,-405,-419,183,393,-177
405,0,2022-09-30T20:28:16.104244,2460432,-1877,59,-447,-948,-405,-419,183,393,-177
406,0,2022-09-30T20:28:16.111175,2460439,-1885,61,-444,-843,-389,-298,183,393,-177
407,0,2022-09-30T20:28:16.117750,2460445,-1885,61,-444,-843,-389,-298,183,393,-177
408,0,2022-09-30T20:28:16.124011,2460451,-1885,61,-444,-843,-389,-298,183,393,-177
409,0,2022-09-30T20:28:16.130241,2460459,-1885,63,-439,-869,-502,-247,178,396,-182
410,0,2022-09-30T20:28:16.137679,2460466,-1885,63,-439,-869,-502,-247,178,396,-182
411,0,2022-09-30T20:28:16.143649,2460471,-1885,63,-439,-869,-502,-247,178,396,-182
412,0,2022-09-30T20:28:16.151053,2460479,-1878,63,-442,-984,-744,-253,178,396,-182
413,0,2022-09-30T20:28:16.157553,2460485,-1878,63,-442,-984,-744,-253,178,396,-182
414,0,2022-09-30T20:28:16.163002,2460490,-1878,63,-442,-984,-744,-253,178,396,-182
415,0,2022-09-30T20:28:16.168575,2460496,-1878,63,-442,-984,-744,-253,178,396,-182
416,0,2022-09-30T20:28:16.177300,2460505,-1877,59,-435,-1159,-829,-308,178,396,-182
417,0,2022-09-30T20:28:16.183737,2460512,-1877,59,-435,-1159,-829,-308,178,396,-182
418,0,2022-09-30T20:28:16.190666,2460518,-1880,63,-438,-1182,-590,-274,178,396,-182
419,0,2022-09-30T20:28:16.197084,2460525,-1880,63,-438,-1182,-590,-274,178,396,-182
420,0,2022-09-30T20:28:16.202716,2460530,-1880,63,-438,-1182,-590,-274,178,396,-182
421,0,2022-09-30T20:28:16.208219,2460535,-1880,63,-438,-1182,-590,-274,178,396,-182
422,0,2022-09-30T20:28:16.214057,2460541,-1883,61,-441,-945,-434,-261,178,396,-182
423,0,2022-09-30T20:28:16.220857,2460549,-1883,61,-441,-945,-434,-261,178,396,-182
424,0,2022-09-30T20:28:16.226089,2460554,-1883,61,-441,-945,-434,-261,178,396,-182
425,0,2022-09-30T20:28:16.232235,2460560,-1883,63,-446,-894,-405,-424,178,396,-182
426,0,2022-09-30T20:28:16.239277,2460567,-1883,63,-446,-894,-405,-424,178,396,-182
427,0,2022-09-30T20:28:16.244915,2460572,-1883,63,-446,-894,-405,-424,178,396,-182
428,0,2022-09-30T20:28:16.252009,2460579,-1886,61,-445,-907,-451,-496,181,387,-187
429,0,2022-09-30T20:28:16.258732,2460587,-1886,61,-445,-907,-451,-496,181,387,-187
430,0,2022-09-30T20:28:16.263877,2460592,-1886,61,-445,-907,-451,-496,181,387,-187
431,0,2022-09-30T20:28:16.270994,2460598,-1879,59,-443,-918,-558,-404,181,387,-187
432,0,2022-09-30T20:28:16.278471,2460606,-1879,59,-443,-918,-558,-404,181,387,-187
433,0,2022-09-30T20:28:16.283630,2460611,-1879,59,-443,-918,-558,-404,181,387,-187
434,0,2022-09-30T20:28:16.289832,2460617,-1880,57,-446,-1104,-617,-325,181,387,-187
435,0,2022-09-30T20:28:16.297104,2460623,-1880,57,-446,-1104,-617,-325,181,387,-187
436,0,2022-09-30T20:28:16.302472,2460631,-1880,57,-446,-1104,-617,-325,181,387,-187
437,0,2022-09-30T20:28:16.307801,2460636,-1880,57,-446,-1104,-617,-325,181,387,-187
438,0,2022-09-30T20:28:16.314275,2460642,-1880,55,-445,-1268,-662,-225,181,387,-187
439,0,2022-09-30T20:28:16.321649,2460648,-1880,55,-445,-1268,-662,-225,181,387,-187
440,0,2022-09-30T20:28:16.327017,2460655,-1880,55,-445,-1268,-662,-225,181,387,-187
441,0,2022-09-30T20:28:16.333814,2460661,-1878,54,-445,-1225,-680,-159,181,387,-187
442,0,2022-09-30T20:28:16.339204,2460666,-1878,54,-445,-1225,-680,-159,181,387,-187
443,0,2022-09-30T20:28:16.345113,2460672,-1878,54,-445,-1225,-680,-159,181,387,-187
444,0,2022-09-30T20:28:16.354512,2460682,-1877,50,-442,-1074,-612,-272,181,387,-187
445,0,2022-09-30T20:28:16.361592,2460689,-1877,50,-442,-1074,-612,-272,181,387,-187
446,0,2022-09-30T20:28:16.367275,2460695,-1877,50,-442,-1074,-612,-272,181,387,-187
447,0,2022-09-30T20:28:16.375323,2460702,-1892,52,-445,-799,-468,-440,181,387,-187
448,0,2022-09-30T20:28:16.382937,2460710,-1892,52,-445,-799,-468,-440,181,387,-187
449,0,2022-09-30T20:28:16.388413,2460716,-1892,52,-445,-799,-468,-440,181,387,-187
450,0,2022-09-30T20:28:16.396987,2460724,-1887,60,-439,-563,-293,-450,185,397,-187
451,0,2022-09-30T20:28:16.403999,2460732,-1887,60,-439,-563,-293,-450,185,397,-187
452,0,2022-09-30T20:28:16.410547,2460738,-1881,63,-439,-682,-407,-408,185,397,-187
453,0,2022-09-30T20:28:16.417158,2460744,-1881,63,-439,-682,-407,-408,185,397,-187
454,0,2022-09-30T20:28:16.425260,2460752,-1881,63,-439,-682,-407,-408,185,397,-187
455,0,2022-09-30T20:28:16.431073,2460759,-1886,63,-439,-1078,-601,-396,185,397,-187
456,0,2022-09-30T20:28:16.437491,2460765,-1886,63,-439,-1078,-601,-396,185,397,-187
457,0,2022-09-30T20:28:16.442548,2460771,-1886,63,-439,-1078,-601,-396,185,397,-187
458,0,2022-09-30T20:28:16.448144,2460776,-1886,63,-439,-1078,-601,-396,185,397,-187
459,0,2022-09-30T20:28:16.455079,2460782,-1882,65,-442,-1195,-705,-269,185,397,-187
460,0,2022-09-30T20:28:16.462290,2460790,-1882,65,-442,-1195,-705,-269,185,397,-187
461,0,2022-09-30T20:28:16.467418,2460795,-1882,65,-442,-1195,-705,-269,185,397,-187
462,0,2022-09-30T20:28:16.474815,2460803,-1880,56,-444,-1204,-649,-182,185,397,-187
463,0,2022-09-30T20:28:16.480944,2460809,-1880,56,-444,-1204,-649,-182,185,397,-187
464,0,2022-09-30T20:28:16.486238,2460814,-1880,56,-444,-1204,-649,-182,185,397,-187
465,0,2022-09-30T20:28:16.491519,2460819,-1884,55,-450,-1146,-573,-265,185,397,-187
466,0,2022-09-30T20:28:16.498921,2460825,-1884,55,-450,-1146,-573,-265,185,397,-187
467,0,2022-09-30T20:28:16.504094,2460832,-1884,55,-450,-1146,-573,-265,185,397,-187
468,0,2022-09-30T20:28:16.510193,2460838,-1886,53,-442,-995,-514,-364,179,393,-181
469,0,2022-09-30T20:28:16.516623,2460845,-1886,53,-442,-995,-514,-364,179,393,-181
470,0,2022-09-30T20:28:16.523735,2460851,-1886,53,-442,-995,-514,-364,179,393,-181
471,0,2022-09-30T20:28:16.528990,2460857,-1886,53,-442,-995,-514,-364,179,393,-181
472,0,2022-09-30T20:28:16.537648,2460865,-1879,53,-446,-831,-574,-365,179,393,-181
473,0,2022-09-30T20:28:16.544461,2460871,-1879,53,-446,-831,-574,-365,179,393,-181
474,0,2022-09-30T20:28:16.552112,2460880,-1880,56,-446,-917,-532,-401,179,393,-181
475,0,2022-09-30T20:28:16.558751,2460887,-1880,56,-446,-917,-532,-401,179,393,-181
476,0,2022-09-30T20:28:16.563851,2460892,-1880,56,-446,-917,-532,-401,179,393,-181
477,0,2022-09-30T20:28:16.570843,2460898,-1884,63,-441,-941,-514,-340,179,393,-181
478,0,2022-09-30T20:28:16.578277,2460906,-1884,63,-441,-941,-514,-340,179,393,-181
479,0,2022-09-30T20:28:16.583814,2460911,-1884,63,-441,-941,-514,-340,179,393,-181
480,0,2022-09-30T20:28:16.590337,2460917,-1885,65,-442,-915,-578,-270,179,393,-181
481,0,2022-09-30T20:28:16.598299,2460923,-1885,65,-442,-915,-578,-270,179,393,-181
482,0,2022-09-30T20:28:16.603999,2460932,-1885,65,-442,-915,-578,-270,179,393,-181
483,0,2022-09-30T20:28:16.610582,2460939,-1883,70,-436,-1104,-567,-346,179,393,-181
484,0,2022-09-30T20:28:16.619101,2460947,-1883,70,-436,-1104,-567,-346,179,393,-181
485,0,2022-09-30T20:28:16.625598,2460953,-1883,70,-436,-1104,-567,-346,179,393,-181
486,0,2022-09-30T20:28:16.631786,2460959,-1878,65,-438,-1083,-692,-314,179,393,-181
487,0,2022-09-30T20:28:16.637754,2460965,-1878,65,-438,-1083,-692,-314,179,393,-181
488,0,2022-09-30T20:28:16.643011,2460971,-1878,65,-438,-1083,-692,-314,179,393,-181
489,0,2022-09-30T20:28:16.648837,2460977,-1878,65,-438,-1083,-692,-314,179,393,-181
490,0,2022-09-30T20:28:16.655128,2460983,-1881,62,-444,-1134,-591,-351,185,387,-185
491,0,2022-09-30T20:28:16.661414,2460989,-1881,62,-444,-1134,-591,-351,185,387,-185
492,0,2022-09-30T20:28:16.666656,2460994,-1881,62,-444,-1134,-591,-351,185,387,-185
493,0,2022-09-30T20:28:16.673733,2461001,-1881,54,-446,-1108,-451,-399,185,387,-185
494,0,2022-09-30T20:28:16.680591,2461008,-1881,54,-446,-1108,-451,-399,185,387,-185
495,0,2022-09-30T20:28:16.685808,2461014,-1881,54,-446,-1108,-451,-399,185,387,-185
496,0,2022-09-30T20:28:16.692052,2461020,-1883,53,-448,-1000,-530,-404,185,387,-185
497,0,2022-09-30T20:28:16.697792,2461025,-1883,53,-448,-1000,-530,-404,185,387,-185
498,0,2022-09-30T20:28:16.704068,2461032,-1883,53,-448,-1000,-530,-404,185,387,-185
499,0,2022-09-30T20:28:16.708992,2461036,-1883,53,-448,-1000,-530,-404,185,387,-185
500,0,2022-09-30T20:28:16.715444,2461043,-1880,48,-446,-1050,-549,-375,185,387,-185
501,0,2022-09-30T20:28:16.722827,2461049,-1880,48,-446,-1050,-549,-375,185,387,-185
502,0,2022-09-30T20:28:16.728756,2461056,-1880,48,-446,-1050,-549,-375,185,387,-185
503,0,2022-09-30T20:28:16.737787,2461065,-1878,49,-442,-1045,-642,-268,185,387,-185
504,0,2022-09-30T20:28:16.745399,2461073,-1878,49,-442,-1045,-642,-268,185,387,-185
505,0,2022-09-30T20:28:16.753809,2461081,-1878,48,-439,-994,-719,-311,185,387,-185
506,0,2022-09-30T20:28:16.762914,2461090,-1878,48,-439,-994,-719,-311,185,387,-185
507,0,2022-09-30T20:28:16.769444,2461096,-1878,48,-439,-994,-719,-311,185,387,-185
508,0,2022-09-30T20:28:16.780330,2461108,-1876,59,-432,-1038,-546,-375,184,388,-172
509,0,2022-09-30T20:28:16.787612,2461115,-1876,59,-432,-1038,-546,-375,184,388,-172
510,0,2022-09-30T20:28:16.793265,2461120,-1881,55,-441,-863,-525,-241,184,388,-172
511,0,2022-09-30T20:28:16.804615,2461132,-1881,55,-441,-863,-525,-241,184,388,-172
512,0,2022-09-30T20:28:16.813438,2461140,-1887,65,-442,-842,-310,-378,184,388,-172
513,0,2022-09-30T20:28:16.825045,2461153,-1887,65,-442,-842,-310,-378,184,388,-172
514,0,2022-09-30T20:28:16.832627,2461160,-1892,66,-447,-664,-388,-473,184,388,-172
515,0,2022-09-30T20:28:16.849837,2461174,-1892,66,-447,-664,-388,-473,184,388,-172
516,0,2022-09-30T20:28:16.858343,2461186,-1887,69,-449,-725,-418,-518,184,388,-172
517,0,2022-09-30T20:28:16.867482,2461195,-1887,69,-449,-725,-418,-518,184,388,-172
518,0,2022-09-30T20:28:16.875442,2461203,-1882,69,-446,-1057,-530,-353,184,388,-172
519,0,2022-09-30T20:28:16.884538,2461212,-1882,69,-446,-1057,-530,-353,184,388,-172
520,0,2022-09-30T20:28:16.890795,2461218,-1882,63,-450,-1266,-818,-136,190,396,-176
521,0,2022-09-30T20:28:16.897212,2461223,-1882,63,-450,-1266,-818,-136,190,396,-176
522,0,2022-09-30T20:28:16.903065,2461231,-1882,63,-450,-1266,-818,-136,190,396,-176
523,0,2022-09-30T20:28:16.908320,2461236,-1882,63,-450,-1266,-818,-136,190,396,-176
524,0,2022-09-30T20:28:16.914707,2461243,-1880,55,-439,-1492,-840,-200,190,396,-176
525,0,2022-09-30T20:28:16.921676,2461249,-1880,55,-439,-1492,-840,-200,190,396,-176
526,0,2022-09-30T20:28:16.926939,2461254,-1880,55,-439,-1492,-840,-200,190,396,-176
527,0,2022-09-30T20:28:16.933824,2461261,-1880,45,-436,-1257,-696,-292,190,396,-176
528,0,2022-09-30T20:28:16.942132,2461268,-1880,45,-436,-1257,-696,-292,190,396,-176
529,0,2022-09-30T20:28:16.948040,2461276,-1880,45,-436,-1257,-696,-292,190,396,-176
530,0,2022-09-30T20:28:16.957172,2461284,-1878,44,-442,-951,-574,-355,190,396,-176
531,0,2022-09-30T20:28:16.966128,2461294,-1878,44,-442,-951,-574,-355,190,396,-176
532,0,2022-09-30T20:28:16.973743,2461300,-1881,50,-441,-848,-457,-480,190,396,-176
533,0,2022-09-30T20:28:16.982783,2461310,-1881,50,-441,-848,-457,-480,190,396,-176
534,0,2022-09-30T20:28:16.988401,2461316,-1881,50,-441,-848,-457,-480,190,396,-176
535,0,2022-09-30T20:28:16.994818,2461322,-1879,54,-447,-819,-441,-482,190,396,-176
536,0,2022-09-30T20:28:17.002424,2461330,-1879,54,-447,-819,-441,-482,190,396,-176
537,0,2022-09-30T20:28:17.007515,2461335,-1879,54,-447,-819,-441,-482,190,396,-176
538,0,2022-09-30T20:28:17.013656,2461341,-1887,59,-446,-817,-498,-371,190,396,-176
539,0,2022-09-30T20:28:17.021006,2461347,-1887,59,-446,-817,-498,-371,190,396,-176
540,0,2022-09-30T20:28:17.026778,2461355,-1887,59,-446,-817,-498,-371,190,396,-176
541,0,2022-09-30T20:28:17.032241,2461360,-1882,69,-442,-1100,-395,-270,181,391,-181
542,0,2022-09-30T20:28:17.040105,2461367,-1882,69,-442,-1100,-395,-270,181,391,-181
543,0,2022-09-30T20:28:17.046500,2461374,-1882,69,-442,-1100,-395,-270,181,391,-181
544,0,2022-09-30T20:28:17.053357,2461381,-1886,66,-449,-1104,-584,-90,181,391,-181
545,0,2022-09-30T20:28:17.059826,2461387,-1886,66,-449,-1104,-584,-90,181,391,-181
546,0,2022-09-30T20:28:17.065153,2461392,-1886,66,-449,-1104,-584,-90,181,391,-181
547,0,2022-09-30T20:28:17.072041,2461400,-1881,62,-444,-1189,-768,-141,181,391,-181
548,0,2022-09-30T20:28:17.078886,2461406,-1881,62,-444,-1189,-768,-141,181,391,-181
549,0,2022-09-30T20:28:17.084620,2461412,-1881,62,-444,-1189,-768,-141,181,391,-181
550,0,2022-09-30T20:28:17.089709,2461418,-1881,62,-444,-1189,-768,-141,181,391,-181
551,0,2022-09-30T20:28:17.095364,2461422,-1869,53,-435,-1266,-811,-302,181,391,-181
552,0,2022-09-30T20:28:17.103860,2461431,-1869,53,-435,-1266,-811,-302,181,391,-181
553,0,2022-09-30T20:28:17.110441,2461437,-1870,44,-440,-1134,-717,-345,181,391,-181
554,0,2022-09-30T20:28:17.116800,2461445,-1870,44,-440,-1134,-717,-345,181,391,-181
555,0,2022-09-30T20:28:17.122440,2461450,-1870,44,-440,-1134,-717,-345,181,391,-181
556,0,2022-09-30T20:28:17.127650,2461455,-1870,44,-440,-1134,-717,-345,181,391,-181
557,0,2022-09-30T20:28:17.133101,2461461,-1885,44,-439,-1011,-387,-325,181,391,-181
558,0,2022-09-30T20:28:17.140025,2461467,-1885,44,-439,-1011,-387,-325,181,391,-181
559,0,2022-09-30T20:28:17.145879,2461473,-1885,44,-439,-1011,-387,-325,181,391,-181
560,0,2022-09-30T20:28:17.153096,2461481,-1894,52,-451,-756,-225,-313,182,384,-188
561,0,2022-09-30T20:28:17.159667,2461488,-1894,52,-451,-756,-225,-313,182,384,-188
562,0,2022-09-30T20:28:17.165042,2461493,-1894,52,-451,-756,-225,-313,182,384,-188
563,0,2022-09-30T20:28:17.171730,2461499,-1893,60,-445,-710,-451,-419,182,384,-188
564,0,2022-09-30T20:28:17.179232,2461507,-1893,60,-445,-710,-451,-419,182,384,-188
565,0,2022-09-30T20:28:17.184762,2461512,-1893,60,-445,-710,-451,-419,182,384,-188
566,0,2022-09-30T20:28:17.191427,2461519,-1888,72,-439,-903,-633,-531,182,384,-188
567,0,2022-09-30T20:28:17.197646,2461526,-1888,72,-439,-903,-633,-531,182,384,-188
568,0,2022-09-30T20:28:17.202993,2461531,-1888,72,-439,-903,-633,-531,182,384,-188
569,0,2022-09-30T20:28:17.208440,2461536,-1888,72,-439,-903,-633,-531,182,384,-188
570,0,2022-09-30T20:28:17.215870,2461543,-1875,74,-438,-1107,-750,-392,182,384,-188
571,0,2022-09-30T20:28:17.224975,2461552,-1875,74,-438,-1107,-750,-392,182,384,-188
572,0,2022-09-30T20:28:17.230624,2461558,-1874,65,-438,-1281,-701,-193,182,384,-188
573,0,2022-09-30T20:28:17.237675,2461565,-1874,65,-438,-1281,-701,-193,182,384,-188
574,0,2022-09-30T20:28:17.242904,2461571,-1874,65,-438,-1281,-701,-193,182,384,-188
575,0,2022-09-30T20:28:17.249071,2461576,-1874,65,-438,-1281,-701,-193,182,384,-188
576,0,2022-09-30T20:28:17.254601,2461582,-1881,56,-439,-1465,-542,-140,182,384,-188
577,0,2022-09-30T20:28:17.261450,2461589,-1881,56,-439,-1465,-542,-140,182,384,-188
578,0,2022-09-30T20:28:17.266622,2461594,-1881,56,-439,-1465,-542,-140,182,384,-188
579,0,2022-09-30T20:28:17.275064,2461602,-1882,45,-452,-1249,-566,-213,182,384,-188
580,0,2022-09-30T20:28:17.284278,2461612,-1882,45,-452,-1249,-566,-213,182,384,-188
581,0,2022-09-30T20:28:17.293938,2461621,-1881,38,-445,-1036,-630,-368,190,398,-176
582,0,2022-09-30T20:28:17.303103,2461631,-1881,38,-445,-1036,-630,-368,190,398,-176
583,0,2022-09-30T20:28:17.309147,2461636,-1881,38,-445,-1036,-630,-368,190,398,-176
584,0,2022-09-30T20:28:17.318408,2461645,-1881,38,-445,-1036,-630,-368,190,398,-176
585,0,2022-09-30T20:28:17.325295,2461652,-1881,38,-445,-1036,-630,-368,190,398,-176
586,0,2022-09-30T20:28:17.332508,2461660,-1880,54,-445,-715,-432,-445,190,398,-176
587,0,2022-09-30T20:28:17.341370,2461669,-1880,54,-445,-715,-432,-445,190,398,-176
588,0,2022-09-30T20:28:17.347717,2461675,-1880,54,-445,-715,-432,-445,190,398,-176
589,0,2022-09-30T20:28:17.355188,2461682,-1882,69,-443,-732,-413,-353,190,398,-176
590,0,2022-09-30T20:28:17.360209,2461688,-1882,69,-443,-732,-413,-353,190,398,-176
591,0,2022-09-30T20:28:17.365874,2461693,-1882,69,-443,-732,-413,-353,190,398,-176
592,0,2022-09-30T20:28:17.372652,2461700,-1884,71,-437,-948,-532,-275,190,398,-176
593,0,2022-09-30T20:28:17.379611,2461708,-1884,71,-437,-948,-532,-275,190,398,-176
594,0,2022-09-30T20:28:17.385347,2461713,-1884,71,-437,-948,-532,-275,190,398,-176
595,0,2022-09-30T20:28:17.392471,2461720,-1883,66,-441,-1114,-714,-152,190,398,-176
596,0,2022-09-30T20:28:17.401344,2461727,-1883,66,-441,-1114,-714,-152,190,398,-176
597,0,2022-09-30T20:28:17.406826,2461734,-1883,66,-441,-1114,-714,-152,190,398,-176
598,0,2022-09-30T20:28:17.412959,2461741,-1875,59,-435,-1289,-773,-172,180,398,-182
599,0,2022-09-30T20:28:17.419488,2461747,-1875,59,-435,-1289,-773,-172,180,398,-182
600,0,2022-09-30T20:28:17.428523,2461756,-1875,59,-435,-1289,-773,-172,180,398,-182
601,0,2022-09-30T20:28:17.434936,2461763,-1874,52,-436,-1348,-681,-267,180,398,-182
602,0,2022-09-30T20:28:17.443816,2461771,-1874,52,-436,-1348,-681,-267,180,398,-182
603,0,2022-09-30T20:28:17.451072,2461778,-1877,47,-444,-1180,-480,-305,180,398,-182
604,0,2022-09-30T20:28:17.457703,2461785,-1877,47,-444,-1180,-480,-305,180,398,-182
605,0,2022-09-30T20:28:17.463510,2461792,-1877,47,-444,-1180,-480,-305,180,398,-182
606,0,2022-09-30T20:28:17.470236,2461798,-1877,47,-444,-1180,-480,-305,180,398,-182
607,0,2022-09-30T20:28:17.476099,2461804,-1885,51,-450,-904,-358,-325,180,398,-182
608,0,2022-09-30T20:28:17.482614,2461810,-1885,51,-450,-904,-358,-325,180,398,-182
609,0,2022-09-30T20:28:17.487547,2461815,-1885,51,-450,-904,-358,-325,180,398,-182
610,0,2022-09-30T20:28:17.494286,2461821,-1886,56,-454,-761,-400,-422,180,398,-182
611,0,2022-09-30T20:28:17.505102,2461833,-1886,56,-454,-761,-400,-422,180,398,-182
612,0,2022-09-30T20:28:17.511829,2461840,-1886,56,-446,-747,-566,-470,180,398,-182
613,0,2022-09-30T20:28:17.518635,2461846,-1886,56,-446,-747,-566,-470,180,398,-182
614,0,2022-09-30T20:28:17.524761,2461852,-1886,56,-446,-747,-566,-470,180,398,-182
615,0,2022-09-30T20:28:17.530202,2461857,-1886,56,-446,-747,-566,-470,180,398,-182
616,0,2022-09-30T20:28:17.538364,2461865,-1885,66,-446,-936,-717,-383,180,398,-182
617,0,2022-09-30T20:28:17.545166,2461873,-1885,66,-446,-936,-717,-383,180,398,-182
618,0,2022-09-30T20:28:17.551998,2461880,-1879,66,-434,-1225,-698,-219,184,394,-184
619,0,2022-09-30T20:28:17.560284,2461888,-1879,66,-434,-1225,-698,-219,184,394,-184
620,0,2022-09-30T20:28:17.565927,2461893,-1879,66,-434,-1225,-698,-219,184,394,-184
621,0,2022-09-30T20:28:17.573817,2461901,-1880,62,-434,-1294,-637,-114,184,394,-184
622,0,2022-09-30T20:28:17.580777,2461908,-1880,62,-434,-1294,-637,-114,184,394,-184
623,0,2022-09-30T20:28:17.586140,2461914,-1880,62,-434,-1294,-637,-114,184,394,-184
624,0,2022-09-30T20:28:17.592299,2461921,-1882,56,-446,-1161,-518,-251,184,394,-184
625,0,2022-09-30T20:28:17.602000,2461930,-1882,56,-446,-1161,-518,-251,184,394,-184
626,0,2022-09-30T20:28:17.607433,2461935,-1882,56,-446,-1161,-518,-251,184,394,-184
627,0,2022-09-30T20:28:17.613684,2461941,-1880,52,-446,-939,-437,-467,184,394,-184
628,0,2022-09-30T20:28:17.621488,2461947,-1880,52,-446,-939,-437,-467,184,394,-184
629,0,2022-09-30T20:28:17.627299,2461955,-1880,52,-446,-939,-437,-467,184,394,-184
630,0,2022-09-30T20:28:17.634278,2461962,-1882,48,-450,-819,-483,-539,184,394,-184
631,0,2022-09-30T20:28:17.641513,2461969,-1882,48,-450,-819,-483,-539,184,394,-184
632,0,2022-09-30T20:28:17.647764,2461975,-1882,48,-450,-819,-483,-539,184,394,-184
633,0,2022-09-30T20:28:17.654487,2461982,-1884,47,-453,-927,-568,-455,184,394,-184
634,0,2022-09-30T20:28:17.661327,2461988,-1884,47,-453,-927,-568,-455,184,394,-184
635,0,2022-09-30T20:28:17.667926,2461996,-1884,47,-453,-927,-568,-455,184,394,-184
636,0,2022-09-30T20:28:17.676618,2462004,-1881,52,-442,-1081,-659,-268,189,395,-179
637,0,2022-09-30T20:28:17.683137,2462011,-1881,52,-442,-1081,-659,-268,189,395,-179
638,0,2022-09-30T20:28:17.688829,2462016,-1881,52,-442,-1081,-659,-268,189,395,-179
639,0,2022-09-30T20:28:17.697553,2462024,-1879,58,-439,-1146,-702,-139,189,395,-179
640,0,2022-09-30T20:28:17.706723,2462034,-1879,58,-439,-1146,-702,-139,189,395,-179
641,0,2022-09-30T20:28:17.712439,2462040,-1879,62,-443,-1116,-639,-201,189,395,-179
642,0,2022-09-30T20:28:17.720404,2462048,-1879,62,-443,-1116,-639,-201,189,395,-179
643,0,2022-09-30T20:28:17.726513,2462055,-1879,62,-443,-1116,-639,-201,189,395,-179
644,0,2022-09-30T20:28:17.733182,2462061,-1876,62,-437,-933,-517,-350,189,395,-179
645,0,2022-09-30T20:28:17.740155,2462068,-1876,62,-437,-933,-517,-350,189,395,-179
646,0,2022-09-30T20:28:17.745778,2462073,-1876,62,-437,-933,-517,-350,189,395,-179
647,0,2022-09-30T20:28:17.751321,2462078,-1880,63,-446,-778,-445,-446,189,395,-179
648,0,2022-09-30T20:28:17.756757,2462085,-1880,63,-446,-778,-445,-446,189,395,-179
649,0,2022-09-30T20:28:17.762149,2462090,-1880,63,-446,-778,-445,-446,189,395,-179
650,0,2022-09-30T20:28:17.767527,2462095,-1880,63,-446,-778,-445,-446,189,395,-179
651,0,2022-09-30T20:28:17.775222,2462103,-1884,57,-449,-852,-444,-450,189,395,-179
652,0,2022-09-30T20:28:17.781935,2462109,-1884,57,-449,-852,-444,-450,189,395,-179
653,0,2022-09-30T20:28:17.787440,2462115,-1884,57,-449,-852,-444,-450,189,395,-179
654,0,2022-09-30T20:28:17.793050,2462120,-1885,57,-445,-1059,-521,-335,187,385,-183
655,0,2022-09-30T20:28:17.803094,2462131,-1885,57,-445,-1059,-521,-335,187,385,-183
656,0,2022-09-30T20:28:17.808707,2462136,-1885,57,-445,-1059,-521,-335,187,385,-183
657,0,2022-09-30T20:28:17.815262,2462143,-1884,52,-443,-1185,-670,-185,187,385,-183
658,0,2022-09-30T20:28:17.822494,2462149,-1884,52,-443,-1185,-670,-185,187,385,-183
659,0,2022-09-30T20:28:17.828046,2462155,-1884,52,-443,-1185,-670,-185,187,385,-183
660,0,2022-09-30T20:28:17.834593,2462162,-1880,50,-445,-1231,-702,-178,187,385,-183
661,0,2022-09-30T20:28:17.844753,2462172,-1880,50,-445,-1231,-702,-178,187,385,-183
662,0,2022-09-30T20:28:17.852453,2462180,-1879,58,-439,-1073,-618,-295,187,385,-183
663,0,2022-09-30T20:28:17.861182,2462187,-1879,58,-439,-1073,-618,-295,187,385,-183
664,0,2022-09-30T20:28:17.867247,2462195,-1879,58,-439,-1073,-618,-295,187,385,-183
665,0,2022-09-30T20:28:17.875011,2462201,-1878,61,-439,-851,-513,-434,187,385,-183
666,0,2022-09-30T20:28:17.882497,2462211,-1878,61,-439,-851,-513,-434,187,385,-183
667,0,2022-09-30T20:28:17.888824,2462217,-1878,61,-439,-851,-513,-434,187,385,-183
668,0,2022-09-30T20:28:17.896389,2462224,-1880,65,-444,-854,-411,-501,187,385,-183
669,0,2022-09-30T20:28:17.903823,2462231,-1880,65,-444,-854,-411,-501,187,385,-183
670,0,2022-09-30T20:28:17.909396,2462237,-1880,65,-444,-854,-411,-501,187,385,-183
671,0,2022-09-30T20:28:17.917125,2462244,-1885,64,-442,-992,-438,-368,187,385,-183
672,0,2022-09-30T20:28:17.925469,2462253,-1885,64,-442,-992,-438,-368,187,385,-183
673,0,2022-09-30T20:28:17.932207,2462260,-1887,58,-444,-1161,-574,-208,183,393,-195
674,0,2022-09-30T20:28:17.939646,2462267,-1887,58,-444,-1161,-574,-208,183,393,-195
675,0,2022-09-30T20:28:17.945464,2462273,-1887,58,-444,-1161,-574,-208,183,393,-195
676,0,2022-09-30T20:28:17.954045,2462281,-1883,53,-450,-1302,-654,-196,183,393,-195
677,0,2022-09-30T20:28:17.961911,2462289,-1883,53,-450,-1302,-654,-196,183,393,-195
678,0,2022-09-30T20:28:17.968172,2462296,-1883,53,-450,-1302,-654,-196,183,393,-195
679,0,2022-09-30T20:28:17.976885,2462305,-1878,54,-453,-1188,-693,-233,183,393,-195
680,0,2022-09-30T20:28:17.984799,2462312,-1878,54,-453,-1188,-693,-233,183,393,-195
681,0,2022-09-30T20:28:17.991580,2462319,-1878,54,-453,-1188,-693,-233,183,393,-195
682,0,2022-09-30T20:28:17.998143,2462325,-1878,54,-453,-1188,-693,-233,183,393,-195
683,0,2022-09-30T20:28:18.004358,2462331,-1878,54,-453,-1188,-693,-233,183,393,-195
684,0,2022-09-30T20:28:18.011881,2462340,-1877,53,-437,-945,-571,-377,183,393,-195
685,0,2022-09-30T20:28:18.019987,2462347,-1877,53,-437,-945,-571,-377,183,393,-195
686,0,2022-09-30T20:28:18.027686,2462355,-1877,53,-437,-945,-571,-377,183,393,-195
687,0,2022-09-30T20:28:18.035188,2462362,-1884,57,-443,-885,-547,-392,183,393,-195
688,0,2022-09-30T20:28:18.043610,2462371,-1884,57,-443,-885,-547,-392,183,393,-195
689,0,2022-09-30T20:28:18.051583,2462380,-1886,59,-446,-825,-519,-347,183,393,-195
690,0,2022-09-30T20:28:18.061896,2462390,-1886,59,-446,-825,-519,-347,186,388,-190
691,0,2022-09-30T20:28:18.067334,2462395,-1886,59,-446,-825,-519,-347,186,388,-190
692,0,2022-09-30T20:28:18.075230,2462402,-1885,58,-440,-866,-557,-311,186,388,-190
693,0,2022-09-30T20:28:18.082185,2462409,-1885,58,-440,-866,-557,-311,186,388,-190
694,0,2022-09-30T20:28:18.088466,2462416,-1885,58,-440,-866,-557,-311,186,388,-190
695,0,2022-09-30T20:28:18.095864,2462424,-1886,63,-438,-1077,-582,-346,186,388,-190
696,0,2022-09-30T20:28:18.105650,2462433,-1886,63,-438,-1077,-582,-346,186,388,-190
697,0,2022-09-30T20:28:18.112320,2462440,-1881,66,-434,-1168,-600,-341,186,388,-190
698,0,2022-09-30T20:28:18.122261,2462449,-1881,66,-434,-1168,-600,-341,186,388,-190
699,0,2022-09-30T20:28:18.128609,2462456,-1881,66,-434,-1168,-600,-341,186,388,-190
700,0,2022-09-30T20:28:18.135677,2462464,-1875,59,-438,-1174,-619,-307,186,388,-190
701,0,2022-09-30T20:28:18.143052,2462471,-1875,59,-438,-1174,-619,-307,186,388,-190
702,0,2022-09-30T20:28:18.149354,2462477,-1875,59,-438,-1174,-619,-307,186,388,-190
703,0,2022-09-30T20:28:18.158300,2462486,-1882,51,-453,-1144,-581,-289,186,388,-190
704,0,2022-09-30T20:28:18.165826,2462493,-1882,51,-453,-1144,-581,-289,186,388,-190
705,0,2022-09-30T20:28:18.172124,2462499,-1882,51,-453,-1144,-581,-289,186,388,-190
706,0,2022-09-30T20:28:18.180490,2462508,-1881,46,-450,-1082,-536,-245,186,388,-190
707,0,2022-09-30T20:28:18.187570,2462516,-1881,46,-450,-1082,-536,-245,186,388,-190
708,0,2022-09-30T20:28:18.195151,2462523,-1877,45,-450,-968,-550,-292,191,385,-177
709,0,2022-09-30T20:28:18.202947,2462531,-1877,45,-450,-968,-550,-292,191,385,-177
710,0,2022-09-30T20:28:18.208863,2462536,-1877,45,-450,-968,-550,-292,191,385,-177
711,0,2022-09-30T20:28:18.214034,2462542,-1882,53,-446,-951,-549,-402,191,385,-177
712,0,2022-09-30T20:28:18.224652,2462548,-1882,53,-446,-951,-549,-402,191,385,-177
713,0,2022-09-30T20:28:18.231851,2462560,-1882,53,-446,-951,-549,-402,191,385,-177
714,0,2022-09-30T20:28:18.240342,2462567,-1880,64,-437,-886,-529,-400,191,385,-177
715,0,2022-09-30T20:28:18.253417,2462580,-1876,66,-435,-934,-551,-322,191,385,-177
716,0,2022-09-30T20:28:18.265982,2462594,-1876,66,-435,-934,-551,-322,191,385,-177
717,0,2022-09-30T20:28:18.273811,2462601,-1881,67,-444,-1044,-560,-244,191,385,-177
718,0,2022-09-30T20:28:18.283038,2462610,-1881,67,-444,-1044,-560,-244,191,385,-177
719,0,2022-09-30T20:28:18.288938,2462616,-1881,67,-444,-1044,-560,-244,191,385,-177
720,0,2022-09-30T20:28:18.296565,2462623,-1880,60,-444,-1109,-559,-203,191,385,-177
721,0,2022-09-30T20:28:18.306212,2462633,-1880,60,-444,-1109,-559,-203,191,385,-177
722,0,2022-09-30T20:28:18.311452,2462639,-1880,60,-444,-1109,-559,-203,191,385,-177
723,0,2022-09-30T20:28:18.317798,2462646,-1884,54,-446,-1107,-604,-310,185,397,-185
724,0,2022-09-30T20:28:18.328139,2462656,-1884,54,-446,-1107,-604,-310,185,397,-185
725,0,2022-09-30T20:28:18.335279,2462663,-1882,55,-443,-1130,-559,-457,185,397,-185
726,0,2022-09-30T20:28:18.344354,2462671,-1882,55,-443,-1130,-559,-457,185,397,-185
727,0,2022-09-30T20:28:18.353265,2462681,-1882,53,-449,-1043,-635,-350,185,397,-185
728,0,2022-09-30T20:28:18.362110,2462690,-1882,53,-449,-1043,-635,-350,185,397,-185
729,0,2022-09-30T20:28:18.368334,2462696,-1882,53,-449,-1043,-635,-350,185,397,-185
730,0,2022-09-30T20:28:18.376428,2462704,-1878,54,-445,-1080,-588,-238,185,397,-185
731,0,2022-09-30T20:28:18.383802,2462711,-1878,54,-445,-1080,-588,-238,185,397,-185
732,0,2022-09-30T20:28:18.388702,2462716,-1878,54,-445,-1080,-588,-238,185,397,-185
733,0,2022-09-30T20:28:18.395550,2462723,-1880,53,-440,-1012,-604,-178,185,397,-185
734,0,2022-09-30T20:28:18.404958,2462733,-1880,53,-440,-1012,-604,-178,185,397,-185
735,0,2022-09-30T20:28:18.411483,2462739,-1880,53,-440,-1012,-604,-178,185,397,-185
736,0,2022-09-30T20:28:18.416957,2462744,-1883,54,-437,-890,-596,-297,185,397,-185
737,0,2022-09-30T20:28:18.426921,2462754,-1883,54,-437,-890,-596,-297,185,397,-185
738,0,2022-09-30T20:28:18.432012,2462759,-1884,62,-439,-892,-526,-458,185,397,-185
739,0,2022-09-30T20:28:18.438986,2462767,-1884,62,-439,-892,-526,-458,184,392,-182
740,0,2022-09-30T20:28:18.447319,2462773,-1884,62,-439,-892,-526,-458,184,392,-182
741,0,2022-09-30T20:28:18.457650,2462785,-1886,70,-439,-902,-517,-492,184,392,-182
742,0,2022-09-30T20:28:18.467669,2462794,-1886,70,-439,-902,-517,-492,184,392,-182
743,0,2022-09-30T20:28:18.481330,2462809,-1879,67,-435,-1048,-566,-411,184,392,-182
744,0,2022-09-30T20:28:18.487031,2462815,-1879,67,-435,-1048,-566,-411,184,392,-182
745,0,2022-09-30T20:28:18.493742,2462822,-1878,60,-439,-1181,-651,-284,184,392,-182
746,0,2022-09-30T20:28:18.503601,2462831,-1878,60,-439,-1181,-651,-284,184,392,-182
747,0,2022-09-30T20:28:18.508808,2462836,-1878,60,-439,-1181,-651,-284,184,392,-182
748,0,2022-09-30T20:28:18.515511,2462842,-1880,50,-440,-1255,-662,-210,184,392,-182
749,0,2022-09-30T20:28:18.529399,2462856,-1880,50,-440,-1255,-662,-210,184,392,-182
750,0,2022-09-30T20:28:18.539711,2462867,-1882,43,-448,-1140,-613,-255,184,392,-182
751,0,2022-09-30T20:28:18.549566,2462876,-1882,43,-448,-1140,-613,-255,184,392,-182
752,0,2022-09-30T20:28:18.557660,2462885,-1880,48,-445,-1028,-519,-433,184,392,-182
753,0,2022-09-30T20:28:18.566570,2462894,-1880,48,-445,-1028,-519,-433,184,392,-182
754,0,2022-09-30T20:28:18.577688,2462905,-1882,58,-434,-860,-506,-503,184,390,-184
755,0,2022-09-30T20:28:18.585503,2462913,-1882,58,-434,-860,-506,-503,184,390,-184
756,0,2022-09-30T20:28:18.595983,2462922,-1881,62,-438,-874,-549,-416,184,390,-184
757,0,2022-09-30T20:28:18.606964,2462935,-1881,62,-438,-874,-549,-416,184,390,-184
758,0,2022-09-30T20:28:18.613974,2462942,-1883,62,-442,-1005,-588,-296,184,390,-184
759,0,2022-09-30T20:28:18.622713,2462950,-1883,62,-442,-1005,-588,-296,184,390,-184
760,0,2022-09-30T20:28:18.628489,2462956,-1883,62,-442,-1005,-588,-296,184,390,-184
761,0,2022-09-30T20:28:18.633819,2462961,-1881,55,-437,-1070,-596,-255,184,390,-184
762,0,2022-09-30T20:28:18.640962,2462968,-1881,55,-437,-1070,-596,-255,184,390,-184
763,0,2022-09-30T20:28:18.647933,2462974,-1881,55,-437,-1070,-596,-255,184,390,-184
764,0,2022-09-30T20:28:18.655277,2462983,-1882,54,-446,-1085,-574,-307,184,390,-184
765,0,2022-09-30T20:28:18.663755,2462990,-1882,54,-446,-1085,-574,-307,184,390,-184
766,0,2022-09-30T20:28:18.669913,2462997,-1882,54,-446,-1085,-574,-307,184,390,-184
767,0,2022-09-30T20:28:18.681387,2463009,-1881,54,-442,-1094,-571,-354,184,390,-184
768,0,2022-09-30T20:28:18.688023,2463015,-1881,54,-442,-1094,-571,-354,184,390,-184
769,0,2022-09-30T20:28:18.694629,2463023,-1880,50,-446,-1050,-568,-338,188,392,-186
770,0,2022-09-30T20:28:18.703570,2463032,-1880,50,-446,-1050,-568,-338,188,392,-186
771,0,2022-09-30T20:28:18.709012,2463037,-1880,50,-446,-1050,-568,-338,188,392,-186
772,0,2022-09-30T20:28:18.714290,2463042,-1883,49,-441,-972,-571,-336,188,392,-186
773,0,2022-09-30T20:28:18.722826,2463050,-1883,49,-441,-972,-571,-336,188,392,-186
774,0,2022-09-30T20:28:18.728691,2463056,-1883,49,-441,-972,-571,-336,188,392,-186
775,0,2022-09-30T20:28:18.734714,2463063,-1884,47,-443,-939,-580,-361,188,392,-186
776,0,2022-09-30T20:28:18.742118,2463070,-1884,47,-443,-939,-580,-361,188,392,-186
777,0,2022-09-30T20:28:18.747537,2463075,-1884,47,-443,-939,-580,-361,188,392,-186
778,0,2022-09-30T20:28:18.753007,2463081,-1881,56,-442,-952,-527,-354,188,392,-186
779,0,2022-09-30T20:28:18.760579,2463089,-1881,56,-442,-952,-527,-354,188,392,-186
780,0,2022-09-30T20:28:18.765661,2463093,-1881,56,-442,-952,-527,-354,188,392,-186
781,0,2022-09-30T20:28:18.772933,2463100,-1882,61,-438,-986,-519,-317,188,392,-186
782,0,2022-09-30T20:28:18.779847,2463108,-1882,61,-438,-986,-519,-317,188,392,-186
783,0,2022-09-30T20:28:18.785103,2463113,-1882,61,-438,-986,-519,-317,188,392,-186
784,0,2022-09-30T20:28:18.791483,2463120,-1882,61,-438,-986,-519,-317,188,392,-186
785,0,2022-09-30T20:28:18.799171,2463124,-1881,63,-439,-1042,-560,-338,188,392,-186
786,0,2022-09-30T20:28:18.805966,2463134,-1881,63,-439,-1042,-560,-338,188,392,-186
787,0,2022-09-30T20:28:18.813094,2463140,-1880,63,-438,-1138,-569,-362,188,392,-186
788,0,2022-09-30T20:28:18.821843,2463148,-1880,63,-438,-1138,-569,-362,188,392,-186
789,0,2022-09-30T20:28:18.827479,2463155,-1880,63,-438,-1138,-569,-362,188,392,-186
790,0,2022-09-30T20:28:18.834486,2463162,-1881,55,-443,-1103,-594,-300,186,394,-184
791,0,2022-09-30T20:28:18.840189,2463168,-1881,55,-443,-1103,-594,-300,186,394,-184
792,0,2022-09-30T20:28:18.846180,2463173,-1881,55,-443,-1103,-594,-300,186,394,-184
793,0,2022-09-30T20:28:18.854769,2463182,-1881,49,-442,-1118,-496,-260,186,394,-184
794,0,2022-09-30T20:28:18.861598,2463190,-1881,49,-442,-1118,-496,-260,186,394,-184
795,0,2022-09-30T20:28:18.866937,2463195,-1881,49,-442,-1118,-496,-260,186,394,-184
796,0,2022-09-30T20:28:18.873737,2463201,-1881,47,-447,-1074,-497,-250,186,394,-184
797,0,2022-09-30T20:28:18.880476,2463208,-1881,47,-447,-1074,-497,-250,186,394,-184
798,0,2022-09-30T20:28:18.885459,2463214,-1881,47,-447,-1074,-497,-250,186,394,-184
799,0,2022-09-30T20:28:18.891538,2463219,-1881,47,-447,-1074,-497,-250,186,394,-184
800,0,2022-09-30T20:28:18.898116,2463225,-1881,47,-447,-1074,-497,-250,186,394,-184
801,0,2022-09-30T20:28:18.903287,2463232,-1881,47,-447,-1074,-497,-250,186,394,-184
802,0,2022-09-30T20:28:18.908435,2463237,-1881,47,-447,-1074,-497,-250,186,394,-184
803,0,2022-09-30T20:28:18.914866,2463243,-1883,54,-442,-1096,-653,-358,186,394,-184
804,0,2022-09-30T20:28:18.922767,2463250,-1883,54,-442,-1096,-653,-358,186,394,-184
805,0,2022-09-30T20:28:18.928799,2463256,-1883,54,-442,-1096,-653,-358,186,394,-184
806,0,2022-09-30T20:28:18.934024,2463262,-1884,59,-440,-928,-554,-272,186,394,-184
807,0,2022-09-30T20:28:18.941128,2463268,-1884,59,-440,-928,-554,-272,186,394,-184
808,0,2022-09-30T20:28:18.946583,2463275,-1884,59,-440,-928,-554,-272,186,394,-184
809,0,2022-09-30T20:28:18.954172,2463282,-1877,59,-440,-825,-515,-316,179,383,-187
810,0,2022-09-30T20:28:18.960861,2463289,-1877,59,-440,-825,-515,-316,179,383,-187
811,0,2022-09-30T20:28:18.965917,2463294,-1877,59,-440,-825,-515,-316,179,383,-187
812,0,2022-09-30T20:28:18.972667,2463300,-1877,59,-440,-825,-515,-316,179,383,-187
813,0,2022-09-30T20:28:18.978230,2463306,-1875,65,-437,-1020,-536,-441,179,383,-187
814,0,2022-09-30T20:28:18.984700,2463312,-1875,65,-437,-1020,-536,-441,179,383,-187
815,0,2022-09-30T20:28:18.991086,2463320,-1875,65,-437,-1020,-536,-441,179,383,-187
816,0,2022-09-30T20:28:18.997054,2463325,-1883,53,-440,-1087,-608,-377,179,383,-187
817,0,2022-09-30T20:28:19.004908,2463333,-1883,53,-440,-1087,-608,-377,179,383,-187
818,0,2022-09-30T20:28:19.010302,2463338,-1883,53,-440,-1087,-608,-377,179,383,-187
819,0,2022-09-30T20:28:19.015906,2463344,-1883,56,-449,-1072,-407,-341,179,383,-187
820,0,2022-09-30T20:28:19.023364,2463350,-1883,56,-449,-1072,-407,-341,179,383,-187
821,0,2022-09-30T20:28:19.028733,2463356,-1883,56,-449,-1072,-407,-341,179,383,-187
822,0,2022-09-30T20:28:19.035178,2463364,-1886,53,-451,-918,-364,-341,179,383,-187
823,0,2022-09-30T20:28:19.042629,2463370,-1886,53,-451,-918,-364,-341,179,383,-187
824,0,2022-09-30T20:28:19.050230,2463378,-1886,53,-451,-918,-364,-341,179,383,-187
825,0,2022-09-30T20:28:19.056370,2463383,-1885,50,-452,-888,-536,-385,179,383,-187
826,0,2022-09-30T20:28:19.062705,2463390,-1885,50,-452,-888,-536,-385,179,383,-187
827,0,2022-09-30T20:28:19.068314,2463396,-1885,50,-452,-888,-536,-385,179,383,-187
828,0,2022-09-30T20:28:19.076049,2463404,-1877,53,-440,-1094,-657,-292,179,383,-187
829,0,2022-09-30T20:28:19.082977,2463411,-1877,53,-440,-1094,-657,-292,179,383,-187
830,0,2022-09-30T20:28:19.088455,2463416,-1877,53,-440,-1094,-657,-292,179,383,-187
831,0,2022-09-30T20:28:19.095260,2463423,-1881,54,-442,-1086,-815,-17,183,393,-183
832,0,2022-09-30T20:28:19.104303,2463432,-1881,54,-442,-1086,-815,-17,183,393,-183
833,0,2022-09-30T20:28:19.110593,2463438,-1881,54,-442,-1086,-815,-17,183,393,-183
834,0,2022-09-30T20:28:19.116789,2463444,-1876,60,-441,-1175,-568,-129,183,393,-183
835,0,2022-09-30T20:28:19.124092,2463452,-1876,60,-441,-1175,-568,-129,183,393,-183
836,0,2022-09-30T20:28:19.129846,2463458,-1876,60,-441,-1175,-568,-129,183,393,-183
837,0,2022-09-30T20:28:19.136443,2463464,-1884,66,-446,-932,-491,-269,183,393,-183
838,0,2022-09-30T20:28:19.143126,2463471,-1884,66,-446,-932,-491,-269,183,393,-183
839,0,2022-09-30T20:28:19.149304,2463476,-1884,66,-446,-932,-491,-269,183,393,-183
840,0,2022-09-30T20:28:19.155881,2463483,-1889,68,-441,-804,-426,-363,183,393,-183
841,0,2022-09-30T20:28:19.163077,2463491,-1889,68,-441,-804,-426,-363,183,393,-183
842,0,2022-09-30T20:28:19.168346,2463497,-1889,68,-441,-804,-426,-363,183,393,-183
843,0,2022-09-30T20:28:19.175860,2463504,-1899,72,-446,-871,-327,-317,183,393,-183
844,0,2022-09-30T20:28:19.182536,2463510,-1899,72,-446,-871,-327,-317,183,393,-183
845,0,2022-09-30T20:28:19.187563,2463515,-1899,72,-446,-871,-327,-317,183,393,-183
846,0,2022-09-30T20:28:19.194484,2463522,-1916,75,-454,-929,-257,-56,183,393,-183
847,0,2022-09-30T20:28:19.199925,2463527,-1916,75,-454,-929,-257,-56,183,393,-183
848,0,2022-09-30T20:28:19.205545,2463534,-1916,75,-454,-929,-257,-56,183,393,-183
849,0,2022-09-30T20:28:19.211981,2463540,-1916,75,-454,-929,-257,-56,183,393,-183
850,0,2022-09-30T20:28:19.217571,2463545,-1926,91,-455,-1246,-145,313,178,388,-190
851,0,2022-09-30T20:28:19.224646,2463552,-1926,91,-455,-1246,-145,313,178,388,-190
852,0,2022-09-30T20:28:19.232778,2463560,-1926,91,-455,-1246,-145,313,178,388,-190
853,0,2022-09-30T20:28:19.238638,2463566,-1921,115,-451,-1766,-421,799,178,388,-190
854,0,2022-09-30T20:28:19.246886,2463574,-1921,115,-451,-1766,-421,799,178,388,-190
855,0,2022-09-30T20:28:19.255488,2463583,-1913,122,-448,-2570,-923,1157,178,388,-190
856,0,2022-09-30T20:28:19.262507,2463590,-1913,122,-448,-2570,-923,1157,178,388,-190
857,0,2022-09-30T20:28:19.268273,2463596,-1913,122,-448,-2570,-923,1157,178,388,-190
858,0,2022-09-30T20:28:19.278020,2463605,-1899,121,-436,-3275,-1242,1435,178,388,-190
859,0,2022-09-30T20:28:19.284662,2463612,-1899,121,-436,-3275,-1242,1435,178,388,-190
860,0,2022-09-30T20:28:19.290809,2463619,-1899,121,-436,-3275,-1242,1435,178,388,-190
861,0,2022-09-30T20:28:19.297653,2463625,-1890,117,-431,-3704,-1125,1727,178,388,-190
862,0,2022-09-30T20:28:19.305034,2463633,-1890,117,-431,-3704,-1125,1727,178,388,-190
863,0,2022-09-30T20:28:19.310388,2463638,-1890,117,-431,-3704,-1125,1727,178,388,-190
864,0,2022-09-30T20:28:19.315781,2463643,-1860,112,-425,-3920,-1070,2023,178,388,-190
865,0,2022-09-30T20:28:19.322927,2463650,-1860,112,-425,-3920,-1070,2023,178,388,-190
866,0,2022-09-30T20:28:19.328261,2463656,-1860,112,-425,-3920,-1070,2023,178,388,-190
867,0,2022-09-30T20:28:19.334148,2463662,-1851,95,-428,-4053,-1219,1874,188,392,-190
868,0,2022-09-30T20:28:19.341465,2463669,-1851,95,-428,-4053,-1219,1874,188,392,-190
869,0,2022-09-30T20:28:19.347003,2463675,-1851,95,-428,-4053,-1219,1874,188,392,-190
870,0,2022-09-30T20:28:19.354042,2463682,-1741,-113,-445,-3556,-800,1082,188,392,-190
871,0,2022-09-30T20:28:19.360602,2463688,-1741,-113,-445,-3556,-800,1082,188,392,-190
872,0,2022-09-30T20:28:19.365743,2463693,-1741,-113,-445,-3556,-800,1082,188,392,-190
873,0,2022-09-30T20:28:19.372495,2463699,-1741,-113,-445,-3556,-800,1082,188,392,-190
874,0,2022-09-30T20:28:19.377960,2463706,-1900,60,-455,-1658,287,-495,188,392,-190
875,0,2022-09-30T20:28:19.384501,2463713,-1900,60,-455,-1658,287,-495,188,392,-190
876,0,2022-09-30T20:28:19.389614,2463718,-1900,60,-455,-1658,287,-495,188,392,-190
877,0,2022-09-30T20:28:19.394754,2463723,-1900,60,-455,-1658,287,-495,188,392,-190
878,0,2022-09-30T20:28:19.400959,2463728,-1900,60,-455,-1658,287,-495,188,392,-190
879,0,2022-09-30T20:28:19.406022,2463734,-1900,60,-455,-1658,287,-495,188,392,-190
880,0,2022-09-30T20:28:19.412308,2463740,-1900,60,-455,-1658,287,-495,188,392,-190
881,0,2022-09-30T20:28:19.417668,2463746,-1900,177,-469,1253,603,-1425,188,392,-190
882,0,2022-09-30T20:28:19.424311,2463752,-1900,177,-469,1253,603,-1425,188,392,-190
883,0,2022-09-30T20:28:19.430613,2463759,-1900,177,-469,1253,603,-1425,188,392,-190
884,0,2022-09-30T20:28:19.436106,2463764,-1845,139,-425,-83,736,-2181,188,392,-190
885,0,2022-09-30T20:28:19.443286,2463771,-1845,139,-425,-83,736,-2181,188,392,-190
886,0,2022-09-30T20:28:19.449330,2463777,-1845,139,-425,-83,736,-2181,188,392,-190
887,0,2022-09-30T20:28:19.455902,2463783,-1858,123,-456,-214,51,-1646,188,392,-190
888,0,2022-09-30T20:28:19.462629,2463790,-1858,123,-456,-214,51,-1646,188,392,-190
889,0,2022-09-30T20:28:19.468150,2463796,-1858,123,-456,-214,51,-1646,188,392,-190
890,0,2022-09-30T20:28:19.475891,2463804,-1894,92,-458,-783,49,-1117,180,388,-186
891,0,2022-09-30T20:28:19.482171,2463810,-1894,92,-458,-783,49,-1117,180,388,-186
892,0,2022-09-30T20:28:19.487240,2463815,-1894,92,-458,-783,49,-1117,180,388,-186
893,0,2022-09-30T20:28:19.493284,2463821,-1910,73,-486,-1043,77,-1344,180,388,-186
894,0,2022-09-30T20:28:19.501723,2463830,-1910,73,-486,-1043,77,-1344,180,388,-186
895,0,2022-09-30T20:28:19.507107,2463835,-1910,73,-486,-1043,77,-1344,180,388,-186
896,0,2022-09-30T20:28:19.513561,2463842,-1912,38,-489,-412,-19,-2236,180,388,-186
897,0,2022-09-30T20:28:19.520540,2463848,-1912,38,-489,-412,-19,-2236,180,388,-186
898,0,2022-09-30T20:28:19.525762,2463854,-1912,38,-489,-412,-19,-2236,180,388,-186
899,0,2022-09-30T20:28:19.532280,2463860,-1912,38,-489,-412,-19,-2236,180,388,-186
900,0,2022-09-30T20:28:19.538168,2463865,-1900,33,-488,146,-189,-3319,180,388,-186
901,0,2022-09-30T20:28:19.544681,2463873,-1900,33,-488,146,-189,-3319,180,388,-186
902,0,2022-09-30T20:28:19.550902,2463879,-1900,33,-488,146,-189,-3319,180,388,-186
903,0,2022-09-30T20:28:19.556021,2463884,-1872,49,-471,349,-288,-3744,180,388,-186
904,0,2022-09-30T20:28:19.563306,2463891,-1872,49,-471,349,-288,-3744,180,388,-186
905,0,2022-09-30T20:28:19.568489,2463896,-1872,49,-471,349,-288,-3744,180,388,-186
906,0,2022-09-30T20:28:19.578173,2463906,-1869,63,-470,-210,-535,-2495,180,388,-186
907,0,2022-09-30T20:28:19.584691,2463912,-1869,63,-470,-210,-535,-2495,180,388,-186
908,0,2022-09-30T20:28:19.590138,2463918,-1869,63,-470,-210,-535,-2495,180,388,-186
909,0,2022-09-30T20:28:19.595471,2463923,-1864,49,-465,-824,-718,-1432,189,397,-189
910,0,2022-09-30T20:28:19.600560,2463929,-1864,49,-465,-824,-718,-1432,189,397,-189
911,0,2022-09-30T20:28:19.606036,2463934,-1864,49,-465,-824,-718,-1432,189,397,-189
912,0,2022-09-30T20:28:19.611623,2463939,-1864,49,-465,-824,-718,-1432,189,397,-189
913,0,2022-09-30T20:28:19.617492,2463945,-1851,46,-451,-268,-599,-2290,189,397,-189
914,0,2022-09-30T20:28:19.624561,2463952,-1851,46,-451,-268,-599,-2290,189,397,-189
915,0,2022-09-30T20:28:19.630916,2463959,-1851,46,-451,-268,-599,-2290,189,397,-189
916,0,2022-09-30T20:28:19.636231,2463964,-1862,62,-475,-166,-472,-2331,189,397,-189
917,0,2022-09-30T20:28:19.642727,2463971,-1862,62,-475,-166,-472,-2331,189,397,-189
918,0,2022-09-30T20:28:19.648525,2463976,-1862,62,-475,-166,-472,-2331,189,397,-189
919,0,2022-09-30T20:28:19.655294,2463983,-1899,19,-486,-1105,278,-1027,189,397,-189
920,0,2022-09-30T20:28:19.661812,2463989,-1899,19,-486,-1105,278,-1027,189,397,-189
921,0,2022-09-30T20:28:19.667354,2463995,-1899,19,-486,-1105,278,-1027,189,397,-189
922,0,2022-09-30T20:28:19.675099,2464003,-1937,-60,-509,-1261,578,-1123,189,397,-189
923,0,2022-09-30T20:28:19.682507,2464010,-1937,-60,-509,-1261,578,-1123,189,397,-189
924,0,2022-09-30T20:28:19.687761,2464016,-1937,-60,-509,-1261,578,-1123,189,397,-189
925,0,2022-09-30T20:28:19.694028,2464022,-1931,-105,-548,-107,225,-3402,189,397,-189
926,0,2022-09-30T20:28:19.704075,2464032,-1931,-105,-548,-107,225,-3402,189,397,-189
927,0,2022-09-30T20:28:19.709620,2464037,-1931,-105,-548,-107,225,-3402,189,397,-189
928,0,2022-09-30T20:28:19.716363,2464045,-1889,-81,-538,1077,224,-5886,189,397,-189
929,0,2022-09-30T20:28:19.724052,2464051,-1889,-81,-538,1077,224,-5886,189,397,-189
930,0,2022-09-30T20:28:19.729558,2464058,-1889,-81,-538,1077,224,-5886,189,397,-189
931,0,2022-09-30T20:28:19.735384,2464064,-1868,-41,-498,919,615,-5745,192,398,-186
932,0,2022-09-30T20:28:19.741746,2464070,-1868,-41,-498,919,615,-5745,192,398,-186
933,0,2022-09-30T20:28:21.587089,2464074,-1868,-41,-498,919,615,-5745,192,398,-186
934,0,2022-09-30T20:28:21.595512,2465923,-1879,38,-442,-1140,-604,-442,187,397,-189
935,0,2022-09-30T20:28:21.605302,2465933,-1882,28,-439,-1091,-529,-211,187,397,-189
936,0,2022-09-30T20:28:21.613605,2465941,-1882,28,-439,-1091,-529,-211,187,397,-189
937,0,2022-09-30T20:28:21.624213,2465952,-1887,13,-456,-1116,-508,-100,187,397,-189
938,0,2022-09-30T20:28:21.630120,2465957,-1887,13,-456,-1116,-508,-100,187,397,-189
939,0,2022-09-30T20:28:21.637518,2465966,-1880,11,-453,-1003,-478,-314,187,397,-189
940,0,2022-09-30T20:28:21.646391,2465973,-1880,11,-453,-1003,-478,-314,187,397,-189
941,0,2022-09-30T20:28:21.652251,2465980,-1880,11,-453,-1003,-478,-314,187,397,-189
942,0,2022-09-30T20:28:21.659111,2465987,-1872,28,-432,-801,-600,-610,183,399,-189
943,0,2022-09-30T20:28:21.667739,2465994,-1872,28,-432,-801,-600,-610,183,399,-189
944,0,2022-09-30T20:28:21.674509,2466002,-1872,28,-432,-801,-600,-610,183,399,-189
945,0,2022-09-30T20:28:21.681024,2466009,-1866,39,-439,-851,-679,-542,183,399,-189
946,0,2022-09-30T20:28:21.687935,2466016,-1866,39,-439,-851,-679,-542,183,399,-189
947,0,2022-09-30T20:28:21.695051,2466022,-1866,39,-439,-851,-679,-542,183,399,-189
948,0,2022-09-30T20:28:21.703253,2466031,-1868,27,-452,-1138,-581,-120,183,399,-189
949,0,2022-09-30T20:28:21.710313,2466037,-1868,27,-452,-1138,-581,-120,183,399,-189
950,0,2022-09-30T20:28:21.717130,2466044,-1883,30,-453,-1308,-570,163,183,399,-189
951,0,2022-09-30T20:28:21.724089,2466052,-1883,30,-453,-1308,-570,163,183,399,-189
952,0,2022-09-30T20:28:21.730018,2466058,-1883,30,-453,-1308,-570,163,183,399,-189
953,0,2022-09-30T20:28:21.737079,2466065,-1890,23,-452,-1166,-592,64,183,399,-189
954,0,2022-09-30T20:28:21.744168,2466072,-1890,23,-452,-1166,-592,64,183,399,-189
955,0,2022-09-30T20:28:21.750079,2466077,-1890,23,-452,-1166,-592,64,183,399,-189
956,0,2022-09-30T20:28:21.755973,2466083,-1890,23,-452,-1166,-592,64,183,399,-189
957,0,2022-09-30T20:28:21.763181,2466091,-1880,19,-451,-994,-577,-280,183,399,-189
958,0,2022-09-30T20:28:21.769934,2466098,-1880,19,-451,-994,-577,-280,183,399,-189
959,0,2022-09-30T20:28:21.777451,2466105,-1880,33,-448,-982,-591,-506,183,399,-189
960,0,2022-09-30T20:28:21.784370,2466112,-1880,33,-448,-982,-591,-506,183,399,-189
961,0,2022-09-30T20:28:21.790616,2466118,-1880,33,-448,-982,-591,-506,183,399,-189
962,0,2022-09-30T20:28:21.798045,2466125,-1876,38,-440,-1056,-565,-425,189,397,-181
963,0,2022-09-30T20:28:21.805084,2466132,-1876,38,-440,-1056,-565,-425,189,397,-181
964,0,2022-09-30T20:28:21.810877,2466139,-1876,38,-440,-1056,-565,-425,189,397,-181
965,0,2022-09-30T20:28:21.818774,2466147,-1877,29,-443,-1082,-539,-202,189,397,-181
966,0,2022-09-30T20:28:21.828334,2466154,-1877,29,-443,-1082,-539,-202,189,397,-181
967,0,2022-09-30T20:28:21.836956,2466164,-1877,29,-443,-1082,-539,-202,189,397,-181
968,0,2022-09-30T20:28:21.843012,2466170,-1883,19,-454,-1090,-560,-144,189,397,-181
969,0,2022-09-30T20:28:21.850180,2466178,-1883,19,-454,-1090,-560,-144,189,397,-181
970,0,2022-09-30T20:28:21.857072,2466185,-1884,19,-451,-1087,-556,-311,189,397,-181
971,0,2022-09-30T20:28:21.863857,2466192,-1884,19,-451,-1087,-556,-311,189,397,-181
972,0,2022-09-30T20:28:21.869256,2466197,-1884,19,-451,-1087,-556,-311,189,397,-181
973,0,2022-09-30T20:28:21.876614,2466204,-1879,35,-447,-943,-592,-498,189,397,-181
974,0,2022-09-30T20:28:21.883555,2466211,-1879,35,-447,-943,-592,-498,189,397,-181
975,0,2022-09-30T20:28:21.888983,2466216,-1879,35,-447,-943,-592,-498,189,397,-181
976,0,2022-09-30T20:28:21.895516,2466224,-1879,35,-447,-943,-592,-498,189,397,-181
977,0,2022-09-30T20:28:21.901442,2466229,-1873,30,-451,-823,-615,-500,189,397,-181
978,0,2022-09-30T20:28:21.907694,2466236,-1873,30,-451,-823,-615,-500,189,397,-181
979,0,2022-09-30T20:28:21.914113,2466242,-1873,30,-451,-823,-615,-500,189,397,-181
980,0,2022-09-30T20:28:21.919767,2466247,-1874,28,-441,-946,-560,-362,186,394,-182
981,0,2022-09-30T20:28:21.927424,2466255,-1874,28,-441,-946,-560,-362,186,394,-182
982,0,2022-09-30T20:28:21.934089,2466262,-1874,28,-441,-946,-560,-362,186,394,-182
983,0,2022-09-30T20:28:21.939884,2466268,-1888,27,-436,-1131,-540,-264,186,394,-182
984,0,2022-09-30T20:28:21.946500,2466275,-1888,27,-436,-1131,-540,-264,186,394,-182
985,0,2022-09-30T20:28:21.953275,2466281,-1888,27,-436,-1131,-540,-264,186,394,-182
986,0,2022-09-30T20:28:21.959478,2466288,-1882,28,-450,-1111,-607,-289,186,394,-182
987,0,2022-09-30T20:28:21.965935,2466294,-1882,28,-450,-1111,-607,-289,186,394,-182
988,0,2022-09-30T20:28:21.972601,2466300,-1882,28,-450,-1111,-607,-289,186,394,-182
989,0,2022-09-30T20:28:21.978005,2466306,-1880,27,-441,-1080,-562,-255,186,394,-182
990,0,2022-09-30T20:28:21.986620,2466315,-1880,27,-441,-1080,-562,-255,186,394,-182
991,0,2022-09-30T20:28:21.993018,2466321,-1880,27,-441,-1080,-562,-255,186,394,-182
992,0,2022-09-30T20:28:21.999742,2466327,-1880,21,-445,-1124,-547,-228,186,394,-182
993,0,2022-09-30T20:28:22.006046,2466334,-1880,21,-445,-1124,-547,-228,186,394,-182
994,0,2022-09-30T20:28:22.012700,2466340,-1880,21,-445,-1124,-547,-228,186,394,-182
995,0,2022-09-30T20:28:22.018404,2466347,-1884,23,-448,-1109,-583,-291,186,394,-182
996,0,2022-09-30T20:28:22.025922,2466354,-1884,23,-448,-1109,-583,-291,186,394,-182
997,0,2022-09-30T20:28:22.032754,2466361,-1884,23,-448,-1109,-583,-291,186,394,-182
998,0,2022-09-30T20:28:22.038284,2466366,-1880,26,-447,-965,-572,-371,187,405,-187
999,0,2022-09-30T20:28:22.045703,2466373,-1880,26,-447,-965,-572,-371,187,405,-187
1000,0,2022-09-30T20:28:22.051209,2466379,-1880,26,-447,-965,-572,-371,187,405,-187
1001,0,2022-09-30T20:28:22.057513,2466385,-1877,27,-446,-956,-591,-382,187,405,-187
1002,0,2022-09-30T20:28:22.064578,2466393,-1877,27,-446,-956,-591,-382,187,405,-187
1003,0,2022-09-30T20:28:22.069741,2466398,-1877,27,-446,-956,-591,-382,187,405,-187
1004,0,2022-09-30T20:28:22.076808,2466405,-1876,29,-442,-1074,-587,-308,187,405,-187
1005,0,2022-09-30T20:28:22.084460,2466412,-1876,29,-442,-1074,-587,-308,187,405,-187
1006,0,2022-09-30T20:28:22.090003,2466418,-1876,29,-442,-1074,-587,-308,187,405,-187
1007,0,2022-09-30T20:28:22.096298,2466424,-1876,29,-442,-1074,-587,-308,187,405,-187
1008,0,2022-09-30T20:28:22.102899,2466430,-1876,29,-442,-1074,-587,-308,187,405,-187
1009,0,2022-09-30T20:28:22.108328,2466437,-1876,29,-442,-1074,-587,-308,187,405,-187
1010,0,2022-09-30T20:28:22.115309,2466444,-1876,29,-442,-1074,-587,-308,187,405,-187
1011,0,2022-09-30T20:28:22.120757,2466449,-1881,22,-440,-1031,-553,-263,187,405,-187
1012,0,2022-09-30T20:28:22.127121,2466455,-1881,22,-440,-1031,-553,-263,187,405,-187
1013,0,2022-09-30T20:28:22.132313,2466460,-1881,22,-440,-1031,-553,-263,187,405,-187
1014,0,2022-09-30T20:28:22.137725,2466465,-1880,24,-451,-996,-607,-360,187,405,-187
1015,0,2022-09-30T20:28:22.144340,2466472,-1880,24,-451,-996,-607,-360,187,405,-187
1016,0,2022-09-30T20:28:22.149691,2466478,-1880,24,-451,-996,-607,-360,187,405,-187
1017,0,2022-09-30T20:28:22.156002,2466484,-1880,24,-451,-996,-607,-360,187,405,-187
1018,0,2022-09-30T20:28:22.162291,2466490,-1876,30,-445,-1028,-549,-357,187,405,-187
1019,0,2022-09-30T20:28:22.169161,2466497,-1876,30,-445,-1028,-549,-357,187,405,-187
1020,0,2022-09-30T20:28:22.175857,2466504,-1876,30,-445,-1028,-549,-357,187,405,-187
1021,0,2022-09-30T20:28:22.181756,2466509,-1880,28,-441,-1023,-534,-292,177,389,-185
1022,0,2022-09-30T20:28:22.188454,2466516,-1880,28,-441,-1023,-534,-292,177,389,-185
1023,0,2022-09-30T20:28:22.195054,2466523,-1880,28,-441,-1023,-534,-292,177,389,-185
1024,0,2022-09-30T20:28:22.201079,2466529,-1879,24,-446,-1008,-573,-274,177,389,-185
1025,0,2022-09-30T20:28:22.207626,2466536,-1879,24,-446,-1008,-573,-274,177,389,-185
1026,0,2022-09-30T20:28:22.213915,2466542,-1879,24,-446,-1008,-573,-274,177,389,-185
1027,0,2022-09-30T20:28:22.219297,2466547,-1884,25,-448,-1045,-540,-285,177,389,-185
1028,0,2022-09-30T20:28:22.225947,2466554,-1884,25,-448,-1045,-540,-285,177,389,-185
1029,0,2022-09-30T20:28:22.232330,2466561,-1884,25,-448,-1045,-540,-285,177,389,-185
1030,0,2022-09-30T20:28:22.237449,2466566,-1882,31,-446,-1035,-541,-357,177,389,-185
1031,0,2022-09-30T20:28:22.244366,2466572,-1882,31,-446,-1035,-541,-357,177,389,-185
1032,0,2022-09-30T20:28:22.249709,2466578,-1882,31,-446,-1035,-541,-357,177,389,-185
1033,0,2022-09-30T20:28:22.256769,2466584,-1882,31,-446,-1035,-541,-357,177,389,-185
1034,0,2022-09-30T20:28:22.262388,2466590,-1881,33,-445,-966,-598,-387,177,389,-185
1035,0,2022-09-30T20:28:22.269934,2466597,-1881,33,-445,-966,-598,-387,177,389,-185
1036,0,2022-09-30T20:28:22.276511,2466605,-1879,30,-448,-982,-551,-332,177,389,-185
1037,0,2022-09-30T20:28:22.284009,2466612,-1879,30,-448,-982,-551,-332,177,389,-185
1038,0,2022-09-30T20:28:22.289309,2466617,-1879,30,-448,-982,-551,-332,177,389,-185
1039,0,2022-09-30T20:28:22.295969,2466624,-1879,30,-448,-982,-551,-332,177,389,-185
1040,0,2022-09-30T20:28:22.303248,2466631,-1878,30,-441,-1064,-554,-303,190,400,-182
1041,0,2022-09-30T20:28:22.308898,2466636,-1878,30,-441,-1064,-554,-303,190,400,-182
1042,0,2022-09-30T20:28:22.315686,2466642,-1878,30,-441,-1064,-554,-303,190,400,-182
1043,0,2022-09-30T20:28:22.323052,2466651,-1880,32,-452,-1084,-590,-306,190,400,-182
1044,0,2022-09-30T20:28:22.330920,2466659,-1880,32,-452,-1084,-590,-306,190,400,-182
1045,0,2022-09-30T20:28:22.338119,2466666,-1877,27,-446,-1062,-578,-293,190,400,-182
1046,0,2022-09-30T20:28:22.345147,2466673,-1877,27,-446,-1062,-578,-293,190,400,-182
1047,0,2022-09-30T20:28:22.350950,2466678,-1877,27,-446,-1062,-578,-293,190,400,-182
1048,0,2022-09-30T20:28:22.357560,2466685,-1879,26,-450,-1082,-544,-237,190,400,-182
1049,0,2022-09-30T20:28:22.365226,2466693,-1879,26,-450,-1082,-544,-237,190,400,-182
1050,0,2022-09-30T20:28:22.371663,2466700,-1879,26,-450,-1082,-544,-237,190,400,-182
1051,0,2022-09-30T20:28:22.379798,2466707,-1877,29,-450,-1069,-617,-230,190,400,-182
1052,0,2022-09-30T20:28:22.386887,2466714,-1877,29,-450,-1069,-617,-230,190,400,-182
1053,0,2022-09-30T20:28:22.392318,2466720,-1877,29,-450,-1069,-617,-230,190,400,-182
1054,0,2022-09-30T20:28:22.397881,2466725,-1885,27,-450,-994,-627,-196,190,400,-182
1055,0,2022-09-30T20:28:22.405331,2466733,-1885,27,-450,-994,-627,-196,190,400,-182
1056,0,2022-09-30T20:28:22.410971,2466739,-1885,27,-450,-994,-627,-196,190,400,-182
1057,0,2022-09-30T20:28:22.419512,2466747,-1881,21,-446,-985,-498,-240,190,400,-182
1058,0,2022-09-30T20:28:22.429080,2466755,-1881,21,-446,-985,-498,-240,190,400,-182
1059,0,2022-09-30T20:28:22.439089,2466767,-1872,32,-432,-990,-600,-406,184,390,-182
1060,0,2022-09-30T20:28:22.449149,2466775,-1872,32,-432,-990,-600,-406,184,390,-182
1061,0,2022-09-30T20:28:22.457348,2466785,-1881,36,-448,-1063,-654,-377,184,390,-182
1062,0,2022-09-30T20:28:22.466973,2466795,-1881,36,-448,-1063,-654,-377,184,390,-182
1063,0,2022-09-30T20:28:22.476515,2466804,-1881,36,-448,-1063,-654,-377,184,390,-182
1064,0,2022-09-30T20:28:22.488427,2466814,-1882,35,-444,-1103,-528,-236,184,390,-182
1065,0,2022-09-30T20:28:22.498992,2466827,-1882,28,-443,-1047,-560,-215,184,390,-182
1066,0,2022-09-30T20:28:22.506339,2466834,-1882,28,-443,-1047,-560,-215,184,390,-182
1067,0,2022-09-30T20:28:22.513620,2466841,-1882,28,-443,-1047,-560,-215,184,390,-182
1068,0,2022-09-30T20:28:22.519755,2466847,-1883,22,-449,-1004,-621,-296,184,390,-182
1069,0,2022-09-30T20:28:22.527213,2466855,-1883,22,-449,-1004,-621,-296,184,390,-182
1070,0,2022-09-30T20:28:22.534638,2466863,-1883,22,-449,-1004,-621,-296,184,390,-182
1071,0,2022-09-30T20:28:22.540830,2466869,-1875,30,-445,-1055,-537,-387,184,390,-182
1072,0,2022-09-30T20:28:22.548609,2466876,-1875,30,-445,-1055,-537,-387,184,390,-182
1073,0,2022-09-30T20:28:22.555543,2466883,-1875,30,-445,-1055,-537,-387,184,390,-182
1074,0,2022-09-30T20:28:22.561025,2466889,-1880,33,-441,-1069,-540,-350,187,391,-177
1075,0,2022-09-30T20:28:22.569611,2466897,-1880,33,-441,-1069,-540,-350,187,391,-177
1076,0,2022-09-30T20:28:22.580744,2466909,-1883,32,-449,-1015,-578,-307,187,391,-177
1077,0,2022-09-30T20:28:22.587374,2466916,-1883,32,-449,-1015,-578,-307,187,391,-177
1078,0,2022-09-30T20:28:22.592501,2466921,-1883,32,-449,-1015,-578,-307,187,391,-177
1079,0,2022-09-30T20:28:22.598067,2466926,-1880,27,-447,-986,-544,-268,187,391,-177
1080,0,2022-09-30T20:28:22.604836,2466933,-1880,27,-447,-986,-544,-268,187,391,-177
1081,0,2022-09-30T20:28:22.609878,2466938,-1880,27,-447,-986,-544,-268,187,391,-177
1082,0,2022-09-30T20:28:22.616199,2466945,-1880,27,-447,-986,-544,-268,187,391,-177
1083,0,2022-09-30T20:28:22.621985,2466950,-1880,23,-448,-1041,-536,-285,187,391,-177
1084,0,2022-09-30T20:28:22.628521,2466957,-1880,23,-448,-1041,-536,-285,187,391,-177
1085,0,2022-09-30T20:28:22.635725,2466963,-1880,23,-448,-1041,-536,-285,187,391,-177
1086,0,2022-09-30T20:28:22.641741,2466969,-1886,32,-453,-1044,-575,-377,187,391,-177
1087,0,2022-09-30T20:28:22.651597,2466979,-1886,32,-453,-1044,-575,-377,187,391,-177
1088,0,2022-09-30T20:28:22.661414,2466990,-1878,33,-445,-1020,-524,-396,187,391,-177
1089,0,2022-09-30T20:28:22.676000,2467004,-1878,33,-445,-1020,-524,-396,187,391,-177
1090,0,2022-09-30T20:28:22.685798,2467014,-1879,34,-446,-1005,-547,-344,187,391,-177
1091,0,2022-09-30T20:28:22.693175,2467021,-1879,34,-446,-1005,-547,-344,187,391,-177
1092,0,2022-09-30T20:28:22.698604,2467026,-1879,28,-449,-1023,-586,-286,187,389,-185
1093,0,2022-09-30T20:28:22.704881,2467034,-1879,28,-449,-1023,-586,-286,187,389,-185
1094,0,2022-09-30T20:28:22.709870,2467039,-1879,28,-449,-1023,-586,-286,187,389,-185
1095,0,2022-09-30T20:28:22.716178,2467045,-1879,28,-449,-1023,-586,-286,187,389,-185
1096,0,2022-09-30T20:28:22.721611,2467049,-1882,29,-444,-1072,-504,-292,187,389,-185
1097,0,2022-09-30T20:28:22.727566,2467056,-1882,29,-444,-1072,-504,-292,187,389,-185
1098,0,2022-09-30T20:28:22.733905,2467062,-1882,29,-444,-1072,-504,-292,187,389,-185
1099,0,2022-09-30T20:28:22.739675,2467067,-1881,29,-443,-1011,-558,-381,187,389,-185
1100,0,2022-09-30T20:28:22.745931,2467074,-1881,29,-443,-1011,-558,-381,187,389,-185
1101,0,2022-09-30T20:28:22.752175,2467081,-1881,29,-443,-1011,-558,-381,187,389,-185
1102,0,2022-09-30T20:28:22.757144,2467086,-1875,35,-450,-961,-626,-411,187,389,-185
1103,0,2022-09-30T20:28:22.763837,2467092,-1875,35,-450,-961,-626,-411,187,389,-185
1104,0,2022-09-30T20:28:22.770358,2467098,-1875,35,-450,-961,-626,-411,187,389,-185
1105,0,2022-09-30T20:28:22.777340,2467105,-1878,32,-448,-1071,-555,-335,187,389,-185
1106,0,2022-09-30T20:28:22.785093,2467112,-1878,32,-448,-1071,-555,-335,187,389,-185
1107,0,2022-09-30T20:28:22.790352,2467119,-1878,32,-448,-1071,-555,-335,187,389,-185
1108,0,2022-09-30T20:28:22.796787,2467125,-1878,32,-448,-1071,-555,-335,187,389,-185
1109,0,2022-09-30T20:28:22.803026,2467131,-1879,28,-453,-1127,-547,-253,187,389,-185
1110,0,2022-09-30T20:28:22.809283,2467137,-1879,28,-453,-1127,-547,-253,187,389,-185
1111,0,2022-09-30T20:28:22.815288,2467144,-1879,28,-453,-1127,-547,-253,187,389,-185
1112,0,2022-09-30T20:28:22.820770,2467148,-1884,26,-447,-992,-578,-292,188,392,-186
1113,0,2022-09-30T20:28:22.826971,2467155,-1884,26,-447,-992,-578,-292,188,392,-186
1114,0,2022-09-30T20:28:22.833055,2467162,-1884,26,-447,-992,-578,-292,188,392,-186
1115,0,2022-09-30T20:28:22.838674,2467167,-1884,24,-441,-962,-543,-344,188,392,-186
1116,0,2022-09-30T20:28:22.847102,2467175,-1884,24,-441,-962,-543,-344,188,392,-186
1117,0,2022-09-30T20:28:22.854146,2467182,-1884,24,-441,-962,-543,-344,188,392,-186
1118,0,2022-09-30T20:28:22.860260,2467188,-1878,34,-446,-1100,-596,-405,188,392,-186
1119,0,2022-09-30T20:28:22.866472,2467194,-1878,34,-446,-1100,-596,-405,188,392,-186
1120,0,2022-09-30T20:28:22.874426,2467202,-1878,34,-446,-1100,-596,-405,188,392,-186
1121,0,2022-09-30T20:28:22.880682,2467209,-1881,34,-453,-1090,-612,-324,188,392,-186
1122,0,2022-09-30T20:28:22.890003,2467218,-1881,34,-453,-1090,-612,-324,188,392,-186
1123,0,2022-09-30T20:28:22.899293,2467227,-1885,28,-444,-1053,-486,-198,188,392,-186
1124,0,2022-09-30T20:28:22.908241,2467235,-1885,28,-444,-1053,-486,-198,188,392,-186
1125,0,2022-09-30T20:28:22.915344,2467244,-1885,28,-444,-1053,-486,-198,188,392,-186
1126,0,2022-09-30T20:28:22.921457,2467249,-1879,23,-446,-980,-585,-268,188,392,-186
1127,0,2022-09-30T20:28:22.928923,2467257,-1879,23,-446,-980,-585,-268,188,392,-186
1128,0,2022-09-30T20:28:22.935626,2467263,-1879,23,-446,-980,-585,-268,188,392,-186
1129,0,2022-09-30T20:28:22.941583,2467269,-1878,29,-449,-976,-625,-380,187,395,-189
1130,0,2022-09-30T20:28:22.951884,2467279,-1878,29,-449,-976,-625,-380,187,395,-189
1131,0,2022-09-30T20:28:22.962145,2467289,-1877,32,-441,-1026,-562,-389,187,395,-189
1132,0,2022-09-30T20:28:22.972260,2467300,-1877,32,-441,-1026,-562,-389,187,395,-189
1133,0,2022-09-30T20:28:22.982219,2467309,-1877,32,-444,-1039,-612,-306,187,395,-189
1134,0,2022-09-30T20:28:22.993327,2467321,-1877,32,-444,-1039,-612,-306,187,395,-189
1135,0,2022-09-30T20:28:23.001815,2467330,-1879,27,-454,-1103,-571,-225,187,395,-189
1136,0,2022-09-30T20:28:23.012613,2467339,-1879,27,-454,-1103,-571,-225,187,395,-189
1137,0,2022-09-30T20:28:23.029813,2467357,-1880,25,-446,-1103,-515,-239,187,395,-189
1138,0,2022-09-30T20:28:23.041781,2467369,-1881,30,-446,-1018,-600,-384,187,395,-189
1139,0,2022-09-30T20:28:23.051056,2467378,-1881,30,-446,-1018,-600,-384,187,395,-189
1140,0,2022-09-30T20:28:23.060150,2467388,-1879,35,-448,-970,-623,-388,187,395,-189
1141,0,2022-09-30T20:28:23.067904,2467395,-1879,35,-448,-970,-623,-388,187,395,-189
1142,0,2022-09-30T20:28:23.077776,2467405,-1879,26,-443,-1031,-545,-293,180,392,-192
1143,0,2022-09-30T20:28:23.087098,2467416,-1879,26,-443,-1031,-545,-293,180,392,-192
1144,0,2022-09-30T20:28:23.095734,2467424,-1879,26,-443,-1031,-545,-293,180,392,-192
1145,0,2022-09-30T20:28:23.106374,2467434,-1881,33,-449,-1111,-581,-265,180,392,-192
1146,0,2022-09-30T20:28:23.115300,2467443,-1881,33,-449,-1111,-581,-265,180,392,-192
1147,0,2022-09-30T20:28:23.121780,2467449,-1883,28,-448,-1026,-591,-298,180,392,-192
1148,0,2022-09-30T20:28:23.132901,2467461,-1883,28,-448,-1026,-591,-298,180,392,-192
1149,0,2022-09-30T20:28:23.142158,2467470,-1878,26,-439,-969,-557,-363,180,392,-192
1150,0,2022-09-30T20:28:23.158675,2467486,-1879,33,-445,-993,-617,-407,180,392,-192
1151,0,2022-09-30T20:28:23.167398,2467495,-1879,33,-445,-993,-617,-407,180,392,-192
1152,0,2022-09-30T20:28:23.178109,2467505,-1879,33,-445,-993,-617,-407,180,392,-192
1153,0,2022-09-30T20:28:23.187251,2467515,-1878,33,-448,-1047,-604,-326,180,392,-192
1154,0,2022-09-30T20:28:23.199691,2467525,-1878,33,-448,-1047,-604,-326,180,392,-192
1155,0,2022-09-30T20:28:23.208399,2467536,-1879,30,-440,-1085,-531,-241,176,384,-188
1156,0,2022-09-30T20:28:23.218261,2467546,-1876,30,-448,-1068,-617,-258,176,384,-188
1157,0,2022-09-30T20:28:23.229164,2467556,-1876,30,-448,-1068,-617,-258,176,384,-188
1158,0,2022-09-30T20:28:23.236544,2467565,-1876,30,-448,-1068,-617,-258,176,384,-188
1159,0,2022-09-30T20:28:23.242096,2467570,-1883,28,-449,-1082,-568,-265,176,384,-188
1160,0,2022-09-30T20:28:23.251815,2467577,-1883,28,-449,-1082,-568,-265,176,384,-188
1161,0,2022-09-30T20:28:23.270953,2467598,-1877,30,-440,-1042,-530,-308,176,384,-188
1162,0,2022-09-30T20:28:23.286681,2467614,-1878,28,-448,-1015,-609,-311,176,384,-188
1163,0,2022-09-30T20:28:23.297645,2467624,-1878,28,-448,-1015,-609,-311,176,384,-188
1164,0,2022-09-30T20:28:23.308140,2467636,-1879,33,-452,-1099,-598,-273,176,384,-188
1165,0,2022-09-30T20:28:23.317636,2467645,-1879,33,-452,-1099,-598,-273,176,384,-188
1166,0,2022-09-30T20:28:23.323821,2467651,-1877,25,-453,-1000,-570,-267,176,384,-188
1167,0,2022-09-30T20:28:23.331528,2467659,-1877,25,-453,-1000,-570,-267,176,384,-188
1168,0,2022-09-30T20:28:23.338459,2467666,-1883,26,-447,-843,-546,-333,187,403,-185
1169,0,2022-09-30T20:28:23.355894,2467674,-1883,26,-447,-843,-546,-333,187,403,-185
1170,0,2022-09-30T20:28:23.361965,2467690,-1873,31,-435,-850,-592,-466,187,403,-185
1171,0,2022-09-30T20:28:23.371804,2467699,-1873,31,-435,-850,-592,-466,187,403,-185
1172,0,2022-09-30T20:28:23.378787,2467706,-1873,31,-435,-850,-592,-466,187,403,-185
1173,0,2022-09-30T20:28:23.384891,2467713,-1877,40,-436,-999,-673,-438,187,403,-185
1174,0,2022-09-30T20:28:23.395554,2467720,-1877,40,-436,-999,-673,-438,187,403,-185
1175,0,2022-09-30T20:28:23.401900,2467729,-1884,38,-444,-1188,-573,-226,187,403,-185
1176,0,2022-09-30T20:28:23.411302,2467737,-1884,38,-444,-1188,-573,-226,187,403,-185
1177,0,2022-09-30T20:28:23.418769,2467746,-1880,29,-442,-1131,-551,-144,187,403,-185
1178,0,2022-09-30T20:28:23.429416,2467757,-1880,29,-442,-1131,-551,-144,187,403,-185
1179,0,2022-09-30T20:28:23.437342,2467765,-1880,29,-442,-1131,-551,-144,187,403,-185
1180,0,2022-09-30T20:28:23.443617,2467771,-1880,21,-451,-1077,-583,-225,187,403,-185
1181,0,2022-09-30T20:28:23.449866,2467777,-1880,21,-451,-1077,-583,-225,187,403,-185
1182,0,2022-09-30T20:28:23.458247,2467786,-1875,38,-442,-1067,-583,-318,187,403,-185
1183,0,2022-09-30T20:28:23.466381,2467793,-1875,38,-442,-1067,-583,-318,189,393,-181
1184,0,2022-09-30T20:28:23.472427,2467801,-1875,38,-442,-1067,-583,-318,189,393,-181
1185,0,2022-09-30T20:28:23.481205,2467809,-1879,40,-444,-964,-575,-307,189,393,-181
1186,0,2022-09-30T20:28:23.489289,2467816,-1879,40,-444,-964,-575,-307,189,393,-181
1187,0,2022-09-30T20:28:23.497461,2467825,-1879,40,-444,-964,-575,-307,189,393,-181
1188,0,2022-09-30T20:28:23.511358,2467832,-1873,35,-442,-898,-655,-251,189,393,-181
1189,0,2022-09-30T20:28:23.519047,2467847,-1879,33,-443,-1027,-648,-150,189,393,-181
1190,0,2022-09-30T20:28:23.532872,2467860,-1879,33,-443,-1027,-648,-150,189,393,-181
1191,0,2022-09-30T20:28:23.540919,2467868,-1879,25,-444,-1199,-510,-158,189,393,-181
1192,0,2022-09-30T20:28:23.557747,2467877,-1879,25,-444,-1199,-510,-158,189,393,-181
1193,0,2022-09-30T20:28:23.564224,2467892,-1887,37,-451,-1104,-615,-338,189,393,-181
1194,0,2022-09-30T20:28:23.573480,2467900,-1887,37,-451,-1104,-615,-338,189,393,-181
1195,0,2022-09-30T20:28:23.583826,2467911,-1881,42,-446,-1023,-589,-438,189,393,-181
1196,0,2022-09-30T20:28:23.594936,2467922,-1881,42,-446,-1023,-589,-438,189,393,-181
1197,0,2022-09-30T20:28:23.604337,2467932,-1876,38,-441,-1018,-548,-340,181,393,-185
1198,0,2022-09-30T20:28:23.612966,2467940,-1876,38,-441,-1018,-548,-340,181,393,-185
1199,0,2022-09-30T20:28:23.620746,2467948,-1883,30,-447,-1081,-558,-251,181,393,-185
1200,0,2022-09-30T20:28:23.629892,2467957,-1883,30,-447,-1081,-558,-251,181,393,-185
1201,0,2022-09-30T20:28:23.635677,2467963,-1883,30,-447,-1081,-558,-251,181,393,-185
1202,0,2022-09-30T20:28:23.642628,2467970,-1884,27,-451,-1095,-547,-319,181,393,-185
1203,0,2022-09-30T20:28:23.650671,2467978,-1884,27,-451,-1095,-547,-319,181,393,-185
1204,0,2022-09-30T20:28:23.657397,2467985,-1884,27,-451,-1095,-547,-319,181,393,-185
1205,0,2022-09-30T20:28:23.663746,2467991,-1881,31,-445,-1026,-521,-457,181,393,-185
1206,0,2022-09-30T20:28:23.672088,2467999,-1881,31,-445,-1026,-521,-457,181,393,-185
1207,0,2022-09-30T20:28:23.680779,2468008,-1878,40,-445,-943,-591,-518,181,393,-185
1208,0,2022-09-30T20:28:23.688821,2468016,-1878,40,-445,-943,-591,-518,181,393,-185
1209,0,2022-09-30T20:28:23.699611,2468026,-1878,40,-445,-943,-591,-518,181,393,-185
1210,0,2022-09-30T20:28:23.709739,2468035,-1876,37,-442,-934,-584,-442,181,393,-185
1211,0,2022-09-30T20:28:23.718377,2468046,-1876,37,-442,-934,-584,-442,181,393,-185
1212,0,2022-09-30T20:28:23.729190,2468057,-1876,37,-442,-934,-584,-442,184,398,-186
1213,0,2022-09-30T20:28:23.737599,2468066,-1876,37,-442,-934,-584,-442,184,398,-186
1214,0,2022-09-30T20:28:23.744320,2468072,-1881,27,-442,-1011,-610,-300,184,398,-186
1215,0,2022-09-30T20:28:23.756332,2468083,-1881,27,-442,-1011,-610,-300,184,398,-186
1216,0,2022-09-30T20:28:23.765550,2468093,-1883,31,-447,-1039,-595,-342,184,398,-186
1217,0,2022-09-30T20:28:23.773941,2468102,-1883,31,-447,-1039,-595,-342,184,398,-186
1218,0,2022-09-30T20:28:23.785359,2468113,-1881,31,-441,-1054,-520,-359,184,398,-186
1219,0,2022-09-30T20:28:23.792928,2468121,-1881,31,-441,-1054,-520,-359,184,398,-186
1220,0,2022-09-30T20:28:23.803159,2468130,-1890,37,-435,-1083,-540,-297,184,398,-186
1221,0,2022-09-30T20:28:23.812481,2468141,-1890,37,-435,-1083,-540,-297,184,398,-186
1222,0,2022-09-30T20:28:23.820953,2468148,-1848,24,-485,-1146,-756,-233,184,398,-186
1223,0,2022-09-30T20:28:23.832650,2468160,-1848,24,-485,-1146,-756,-233,184,398,-186
1224,0,2022-09-30T20:28:23.842013,2468169,-1929,64,-416,-1570,-312,-193,190,394,-172
1225,0,2022-09-30T20:28:23.856553,2468185,-1929,64,-416,-1570,-312,-193,190,394,-172
1226,0,2022-09-30T20:28:23.865957,2468194,-1874,15,-429,-904,-1087,-622,190,394,-172
1227,0,2022-09-30T20:28:23.876546,2468202,-1874,15,-429,-904,-1087,-622,190,394,-172
1228,0,2022-09-30T20:28:23.885406,2468213,-1843,14,-457,-1207,-821,-521,190,394,-172
1229,0,2022-09-30T20:28:23.893358,2468220,-1843,14,-457,-1207,-821,-521,190,394,-172
1230,0,2022-09-30T20:28:23.902844,2468231,-1908,56,-385,-1874,50,272,190,394,-172
1231,0,2022-09-30T20:28:23.912643,2468240,-1908,56,-385,-1874,50,272,190,394,-172
1232,0,2022-09-30T20:28:23.921237,2468248,-1850,17,-461,-1290,-1117,-318,190,394,-172
1233,0,2022-09-30T20:28:23.935635,2468263,-1850,17,-461,-1290,-1117,-318,190,394,-172
1234,0,2022-09-30T20:28:23.945368,2468273,-1868,12,-484,-1112,-739,223,190,394,-172
1235,0,2022-09-30T20:28:23.956451,2468284,-1868,12,-484,-1112,-739,223,190,394,-172
1236,0,2022-09-30T20:28:23.967974,2468295,-1879,-7,-441,-988,-172,-109,190,394,-172
1237,0,2022-09-30T20:28:23.981173,2468308,-1898,87,-423,-628,-687,-945,187,385,-181
1238,0,2022-09-30T20:28:23.986659,2468315,-1898,87,-423,-628,-687,-945,187,385,-181
1239,0,2022-09-30T20:28:23.995116,2468322,-1898,87,-423,-628,-687,-945,187,385,-181
1240,0,2022-09-30T20:28:24.001165,2468329,-1826,35,-456,-185,-1129,-611,187,385,-181
1241,0,2022-09-30T20:28:24.011786,2468339,-1826,35,-456,-185,-1129,-611,187,385,-181
1242,0,2022-09-30T20:28:24.019518,2468347,-1862,58,-449,-1224,-327,603,187,385,-181
1243,0,2022-09-30T20:28:24.035276,2468363,-1862,58,-449,-1224,-327,603,187,385,-181
1244,0,2022-09-30T20:28:24.045192,2468372,-1896,40,-443,-1796,-103,1189,187,385,-181
1245,0,2022-09-30T20:28:24.057221,2468383,-1896,40,-443,-1796,-103,1189,187,385,-181
1246,0,2022-09-30T20:28:24.066079,2468393,-1908,46,-510,-962,-767,452,187,385,-181
1247,0,2022-09-30T20:28:24.076492,2468403,-1908,46,-510,-962,-767,452,187,385,-181
1248,0,2022-09-30T20:28:24.087569,2468415,-1881,19,-499,95,-604,-263,187,385,-181
1249,0,2022-09-30T20:28:24.097137,2468424,-1881,19,-499,95,-604,-263,187,385,-181
1250,0,2022-09-30T20:28:24.109237,2468436,-1888,67,-439,-94,-191,-763,185,395,-187
1251,0,2022-09-30T20:28:24.120236,2468448,-1891,108,-473,-16,-520,-995,185,395,-187
1252,0,2022-09-30T20:28:24.133813,2468461,-1891,108,-473,-16,-520,-995,185,395,-187
1253,0,2022-09-30T20:28:24.139766,2468467,-1869,89,-475,95,-227,-403,185,395,-187
1254,0,2022-09-30T20:28:24.149879,2468477,-1869,89,-475,95,-227,-403,185,395,-187
1255,0,2022-09-30T20:28:24.157866,2468486,-1869,89,-475,95,-227,-403,185,395,-187
1256,0,2022-09-30T20:28:24.164360,2468492,-1883,60,-473,289,-62,76,185,395,-187
1257,0,2022-09-30T20:28:24.169647,2468498,-1883,60,-473,289,-62,76,185,395,-187
1258,0,2022-09-30T20:28:24.178198,2468503,-1883,60,-473,289,-62,76,185,395,-187
1259,0,2022-09-30T20:28:24.186909,2468515,-1890,56,-460,233,-141,-67,185,395,-187
1260,0,2022-09-30T20:28:24.193699,2468521,-1890,56,-460,233,-141,-67,185,395,-187
1261,0,2022-09-30T20:28:24.200108,2468528,-1898,74,-481,523,-607,-649,185,395,-187
1262,0,2022-09-30T20:28:24.209492,2468537,-1898,74,-481,523,-607,-649,185,395,-187
1263,0,2022-09-30T20:28:24.217001,2468545,-1898,74,-481,523,-607,-649,185,395,-187
1264,0,2022-09-30T20:28:24.225501,2468551,-1883,81,-491,717,-439,-855,185,395,-187
1265,0,2022-09-30T20:28:24.234778,2468562,-1883,81,-491,717,-439,-855,185,395,-187
1266,0,2022-09-30T20:28:24.240386,2468569,-1881,79,-462,783,-165,-670,183,391,-189
1267,0,2022-09-30T20:28:24.248613,2468576,-1881,79,-462,783,-165,-670,183,391,-189
1268,0,2022-09-30T20:28:24.259000,2468587,-1881,79,-462,783,-165,-670,183,391,-189
1269,0,2022-09-30T20:28:24.264690,2468593,-1879,85,-470,721,-386,-381,183,391,-189
1270,0,2022-09-30T20:28:24.272359,2468599,-1879,85,-470,721,-386,-381,183,391,-189
1271,0,2022-09-30T20:28:24.283618,2468612,-1882,80,-495,603,-446,-83,183,391,-189
1272,0,2022-09-30T20:28:24.290514,2468619,-1882,80,-495,603,-446,-83,183,391,-189
1273,0,2022-09-30T20:28:24.299219,2468626,-1882,80,-495,603,-446,-83,183,391,-189
1274,0,2022-09-30T20:28:24.305750,2468633,-1889,70,-485,794,-279,-10,183,391,-189
1275,0,2022-09-30T20:28:24.313443,2468641,-1889,70,-485,794,-279,-10,183,391,-189
1276,0,2022-09-30T20:28:24.320561,2468648,-1886,66,-493,1304,-480,-326,183,391,-189
1277,0,2022-09-30T20:28:24.334389,2468663,-1886,66,-493,1304,-480,-326,183,391,-189
1278,0,2022-09-30T20:28:24.341425,2468670,-1880,81,-495,1522,-492,-531,183,391,-189
1279,0,2022-09-30T20:28:24.350875,2468676,-1880,81,-495,1522,-492,-531,183,391,-189
1280,0,2022-09-30T20:28:24.359935,2468688,-1875,78,-478,1609,-389,-378,182,394,-182
1281,0,2022-09-30T20:28:24.368050,2468697,-1875,78,-478,1609,-389,-378,182,394,-182
1282,0,2022-09-30T20:28:24.375630,2468703,-1875,78,-478,1609,-389,-378,182,394,-182
1283,0,2022-09-30T20:28:24.382283,2468710,-1879,82,-481,1524,-409,-115,182,394,-182
1284,0,2022-09-30T20:28:24.389764,2468718,-1879,82,-481,1524,-409,-115,182,394,-182
1285,0,2022-09-30T20:28:24.397431,2468725,-1879,82,-481,1524,-409,-115,182,394,-182
1286,0,2022-09-30T20:28:24.404468,2468732,-1885,71,-499,1691,-334,29,182,394,-182
1287,0,2022-09-30T20:28:24.413372,2468742,-1885,71,-499,1691,-334,29,182,394,-182
1288,0,2022-09-30T20:28:24.419201,2468747,-1885,71,-499,1691,-334,29,182,394,-182
1289,0,2022-09-30T20:28:24.426137,2468753,-1887,66,-484,2164,-246,-194,182,394,-182
1290,0,2022-09-30T20:28:24.435956,2468764,-1887,66,-484,2164,-246,-194,182,394,-182
1291,0,2022-09-30T20:28:24.441697,2468769,-1882,81,-490,2626,-420,-546,182,394,-182
1292,0,2022-09-30T20:28:24.449957,2468777,-1882,81,-490,2626,-420,-546,182,394,-182
1293,0,2022-09-30T20:28:24.460831,2468789,-1878,91,-483,2751,-347,-479,182,394,-182
1294,0,2022-09-30T20:28:24.467871,2468796,-1878,91,-483,2751,-347,-479,182,394,-182
1295,0,2022-09-30T20:28:24.474229,2468801,-1878,91,-483,2751,-347,-479,182,394,-182
1296,0,2022-09-30T20:28:24.480466,2468808,-1879,82,-478,2713,-225,-140,177,393,-183
1297,0,2022-09-30T20:28:24.489848,2468817,-1879,82,-478,2713,-225,-140,177,393,-183
1298,0,2022-09-30T20:28:24.495436,2468824,-1879,82,-478,2713,-225,-140,177,393,-183
1299,0,2022-09-30T20:28:24.506333,2468835,-1885,77,-485,2734,-232,-32,177,393,-183
1300,0,2022-09-30T20:28:24.512193,2468841,-1885,77,-485,2734,-232,-32,177,393,-183
1301,0,2022-09-30T20:28:24.517414,2468846,-1885,77,-485,2734,-232,-32,177,393,-183
1302,0,2022-09-30T20:28:24.525007,2468852,-1892,83,-485,3078,-184,-174,177,393,-183
1303,0,2022-09-30T20:28:24.533729,2468861,-1892,83,-485,3078,-184,-174,177,393,-183
1304,0,2022-09-30T20:28:24.541220,2468870,-1885,80,-475,3547,-216,-378,177,393,-183
1305,0,2022-09-30T20:28:24.554225,2468876,-1885,80,-475,3547,-216,-378,177,393,-183
1306,0,2022-09-30T20:28:24.564725,2468892,-1887,83,-481,3642,-175,-463,177,393,-183
1307,0,2022-09-30T20:28:24.575588,2468902,-1887,83,-481,3642,-175,-463,177,393,-183
1308,0,2022-09-30T20:28:24.584996,2468913,-1893,80,-484,3740,3,-481,177,393,-183
1309,0,2022-09-30T20:28:24.594341,2468920,-1893,80,-484,3740,3,-481,177,393,-183
1310,0,2022-09-30T20:28:24.611588,2468938,-1881,77,-469,3923,61,-676,177,393,-183
1311,0,2022-09-30T20:28:24.622870,2468950,-1875,88,-471,4259,-214,-774,164,386,-194
1312,0,2022-09-30T20:28:24.635963,2468964,-1875,88,-471,4259,-214,-774,164,386,-194
1313,0,2022-09-30T20:28:24.645291,2468973,-1870,79,-474,4188,-153,-363,164,386,-194
1314,0,2022-09-30T20:28:24.653157,2468981,-1870,79,-474,4188,-153,-363,164,386,-194
1315,0,2022-09-30T20:28:24.674943,2469000,-1887,78,-473,4089,26,71,164,386,-194
1316,0,2022-09-30T20:28:24.685019,2469013,-1892,69,-471,4391,-52,-23,164,386,-194
1317,0,2022-09-30T20:28:24.695663,2469023,-1892,69,-471,4391,-52,-23,164,386,-194
1318,0,2022-09-30T20:28:24.705647,2469032,-1892,62,-478,4712,-48,-339,164,386,-194
1319,0,2022-09-30T20:28:24.714938,2469043,-1892,62,-478,4712,-48,-339,164,386,-194
1320,0,2022-09-30T20:28:24.720499,2469049,-1883,62,-469,4925,70,-637,164,386,-194
1321,0,2022-09-30T20:28:24.734909,2469056,-1883,62,-469,4925,70,-637,164,386,-194
1322,0,2022-09-30T20:28:24.743068,2469071,-1877,74,-453,5045,35,-728,155,401,-185
1323,0,2022-09-30T20:28:24.752529,2469080,-1877,74,-453,5045,35,-728,155,401,-185
1324,0,2022-09-30T20:28:24.758197,2469087,-1877,74,-453,5045,35,-728,155,401,-185
1325,0,2022-09-30T20:28:24.765943,2469094,-1886,73,-445,5067,-17,-480,155,401,-185
1326,0,2022-09-30T20:28:24.774587,2469101,-1886,73,-445,5067,-17,-480,155,401,-185
1327,0,2022-09-30T20:28:24.785660,2469111,-1872,63,-446,5029,10,-152,155,401,-185
1328,0,2022-09-30T20:28:24.794809,2469123,-1872,63,-446,5029,10,-152,155,401,-185
1329,0,2022-09-30T20:28:24.802079,2469130,-1880,58,-446,5008,-41,48,155,401,-185
1330,0,2022-09-30T20:28:24.812128,2469140,-1880,58,-446,5008,-41,48,155,401,-185
1331,0,2022-09-30T20:28:24.817696,2469146,-1880,58,-446,5008,-41,48,155,401,-185
1332,0,2022-09-30T20:28:24.825816,2469152,-1876,48,-451,5161,-102,67,155,401,-185
1333,0,2022-09-30T20:28:24.834582,2469163,-1876,48,-451,5161,-102,67,155,401,-185
1334,0,2022-09-30T20:28:24.841715,2469170,-1876,48,-451,5161,-102,67,155,401,-185
1335,0,2022-09-30T20:28:24.848758,2469175,-1876,48,-451,5161,-102,67,155,401,-185
1336,0,2022-09-30T20:28:24.860248,2469188,-1879,47,-444,5375,-38,-57,155,401,-185
1337,0,2022-09-30T20:28:24.867965,2469196,-1879,47,-444,5375,-38,-57,155,401,-185
1338,0,2022-09-30T20:28:24.874438,2469201,-1879,47,-444,5375,-38,-57,155,401,-185
1339,0,2022-09-30T20:28:24.882248,2469211,-1882,57,-440,5490,-67,-153,151,391,-191
1340,0,2022-09-30T20:28:24.889251,2469218,-1882,57,-440,5490,-67,-153,151,391,-191
1341,0,2022-09-30T20:28:24.894580,2469223,-1882,57,-440,5490,-67,-153,151,391,-191
1342,0,2022-09-30T20:28:24.900247,2469228,-1871,53,-444,5591,-34,-93,151,391,-191
1343,0,2022-09-30T20:28:24.907743,2469236,-1871,53,-444,5591,-34,-93,151,391,-191
1344,0,2022-09-30T20:28:24.916070,2469244,-1871,53,-444,5591,-34,-93,151,391,-191
1345,0,2022-09-30T20:28:24.921843,2469250,-1878,47,-442,5608,49,82,151,391,-191
1346,0,2022-09-30T20:28:24.930244,2469259,-1878,47,-442,5608,49,82,151,391,-191
1347,0,2022-09-30T20:28:24.939093,2469267,-1878,47,-442,5608,49,82,151,391,-191
1348,0,2022-09-30T20:28:24.944777,2469273,-1879,43,-449,5674,55,105,151,391,-191
1349,0,2022-09-30T20:28:24.952214,2469280,-1879,43,-449,5674,55,105,151,391,-191
1350,0,2022-09-30T20:28:24.961972,2469291,-1881,44,-458,5844,67,-1,151,391,-191
1351,0,2022-09-30T20:28:24.968651,2469297,-1881,44,-458,5844,67,-1,151,391,-191
1352,0,2022-09-30T20:28:24.983363,2469306,-1881,44,-458,5844,67,-1,151,391,-191
1353,0,2022-09-30T20:28:24.993162,2469321,-1882,49,-449,6019,93,-142,151,391,-191
1354,0,2022-09-30T20:28:25.003573,2469330,-1891,47,-446,6072,169,-286,131,397,-201
1355,0,2022-09-30T20:28:25.015211,2469343,-1891,47,-446,6072,169,-286,131,397,-201
1356,0,2022-09-30T20:28:25.020805,2469349,-1892,43,-442,6112,345,-517,131,397,-201
1357,0,2022-09-30T20:28:25.031547,2469357,-1892,43,-442,6112,345,-517,131,397,-201
1358,0,2022-09-30T20:28:25.039578,2469368,-1892,43,-442,6112,345,-517,131,397,-201
1359,0,2022-09-30T20:28:25.044945,2469373,-1884,47,-435,6299,300,-803,131,397,-201
1360,0,2022-09-30T20:28:25.057425,2469386,-1884,47,-435,6299,300,-803,131,397,-201
1361,0,2022-09-30T20:28:25.064306,2469393,-1871,54,-433,6313,207,-857,131,397,-201
1362,0,2022-09-30T20:28:25.072653,2469401,-1871,54,-433,6313,207,-857,131,397,-201
1363,0,2022-09-30T20:28:25.079157,2469407,-1871,54,-433,6313,207,-857,131,397,-201
1364,0,2022-09-30T20:28:25.084992,2469413,-1863,55,-431,6231,79,-528,131,397,-201
1365,0,2022-09-30T20:28:25.091532,2469420,-1863,55,-431,6231,79,-528,131,397,-201
1366,0,2022-09-30T20:28:25.098183,2469426,-1863,55,-431,6231,79,-528,131,397,-201
1367,0,2022-09-30T20:28:25.108651,2469437,-1868,44,-448,5845,181,27,131,397,-201
1368,0,2022-09-30T20:28:25.117078,2469445,-1868,44,-448,5845,181,27,131,397,-201
1369,0,2022-09-30T20:28:25.123688,2469451,-1884,40,-448,5794,228,250,131,397,-201
1370,0,2022-09-30T20:28:25.132377,2469460,-1884,40,-448,5794,228,250,131,397,-201
1371,0,2022-09-30T20:28:25.139286,2469468,-1884,40,-448,5794,228,250,131,397,-201
1372,0,2022-09-30T20:28:25.145449,2469474,-1874,28,-435,6245,110,-69,120,388,-200
1373,0,2022-09-30T20:28:25.153503,2469481,-1874,28,-435,6245,110,-69,120,388,-200
1374,0,2022-09-30T20:28:25.164350,2469492,-1901,52,-412,6361,-19,-374,120,388,-200
1375,0,2022-09-30T20:28:25.171091,2469499,-1901,52,-412,6361,-19,-374,120,388,-200
1376,0,2022-09-30T20:28:25.179854,2469508,-1901,52,-412,6361,-19,-374,120,388,-200
1377,0,2022-09-30T20:28:25.189404,2469518,-1868,28,-427,6175,-63,-344,120,388,-200
1378,0,2022-09-30T20:28:25.199350,2469527,-1868,28,-427,6175,-63,-344,120,388,-200
1379,0,2022-09-30T20:28:25.205238,2469533,-1902,53,-431,5499,167,-13,120,388,-200
1380,0,2022-09-30T20:28:25.212856,2469540,-1902,53,-431,5499,167,-13,120,388,-200
1381,0,2022-09-30T20:28:25.219063,2469547,-1902,53,-431,5499,167,-13,120,388,-200
1382,0,2022-09-30T20:28:25.225429,2469553,-1877,23,-421,5729,-117,-37,120,388,-200
1383,0,2022-09-30T20:28:25.235337,2469563,-1877,23,-421,5729,-117,-37,120,388,-200
1384,0,2022-09-30T20:28:25.241056,2469569,-1879,44,-427,5605,-202,-107,120,388,-200
1385,0,2022-09-30T20:28:25.248487,2469576,-1879,44,-427,5605,-202,-107,120,388,-200
1386,0,2022-09-30T20:28:25.258980,2469587,-1879,44,-427,5605,-202,-107,120,388,-200
1387,0,2022-09-30T20:28:25.264474,2469593,-1854,4,-415,5709,-249,-10,106,392,-216
1388,0,2022-09-30T20:28:25.270962,2469600,-1854,4,-415,5709,-249,-10,106,392,-216
1389,0,2022-09-30T20:28:25.281418,2469610,-1878,39,-421,5295,-227,240,106,392,-216
1390,0,2022-09-30T20:28:25.288602,2469616,-1878,39,-421,5295,-227,240,106,392,-216
1391,0,2022-09-30T20:28:25.294574,2469623,-1878,39,-421,5295,-227,240,106,392,-216
1392,0,2022-09-30T20:28:25.300324,2469628,-1878,39,-421,5295,-227,240,106,392,-216
1393,0,2022-09-30T20:28:25.307435,2469635,-1869,13,-425,5404,-339,486,106,392,-216
1394,0,2022-09-30T20:28:25.316775,2469645,-1869,13,-425,5404,-339,486,106,392,-216
1395,0,2022-09-30T20:28:25.322821,2469651,-1883,14,-432,4908,-92,726,106,392,-216
1396,0,2022-09-30T20:28:25.334050,2469662,-1883,14,-432,4908,-92,726,106,392,-216
1397,0,2022-09-30T20:28:25.340619,2469669,-1892,19,-444,5110,-77,525,106,392,-216
1398,0,2022-09-30T20:28:25.347494,2469676,-1892,19,-444,5110,-77,525,106,392,-216
1399,0,2022-09-30T20:28:25.360420,2469689,-1879,19,-443,5685,-56,31,106,392,-216
1400,0,2022-09-30T20:28:25.366983,2469695,-1879,19,-443,5685,-56,31,106,392,-216
1401,0,2022-09-30T20:28:25.378183,2469702,-1879,19,-443,5685,-56,31,106,392,-216
1402,0,2022-09-30T20:28:25.385341,2469713,-1871,30,-425,6066,39,-338,100,398,-222
1403,0,2022-09-30T20:28:25.395313,2469723,-1871,30,-425,6066,39,-338,100,398,-222
1404,0,2022-09-30T20:28:25.403430,2469731,-1883,27,-424,5926,55,-423,100,398,-222
1405,0,2022-09-30T20:28:25.413565,2469742,-1883,27,-424,5926,55,-423,100,398,-222
1406,0,2022-09-30T20:28:25.421762,2469749,-1886,34,-447,5523,276,-452,100,398,-222
1407,0,2022-09-30T20:28:25.430345,2469758,-1886,34,-447,5523,276,-452,100,398,-222
1408,0,2022-09-30T20:28:25.436020,2469765,-1886,34,-447,5523,276,-452,100,398,-222
1409,0,2022-09-30T20:28:25.443247,2469772,-1884,30,-430,5666,321,-657,100,398,-222
1410,0,2022-09-30T20:28:25.450236,2469777,-1884,30,-430,5666,321,-657,100,398,-222
1411,0,2022-09-30T20:28:25.460399,2469788,-1884,30,-430,5666,321,-657,100,398,-222
1412,0,2022-09-30T20:28:25.469700,2469796,-1892,44,-437,5799,109,-845,100,398,-222
1413,0,2022-09-30T20:28:25.483310,2469811,-1876,34,-442,5692,223,-742,100,398,-222
1414,0,2022-09-30T20:28:25.491662,2469819,-1876,34,-442,5692,223,-742,100,398,-222
1415,0,2022-09-30T20:28:25.501909,2469828,-1876,34,-442,5692,223,-742,100,398,-222
1416,0,2022-09-30T20:28:25.511029,2469839,-1878,37,-427,5529,360,-503,100,398,-222
1417,0,2022-09-30T20:28:25.522908,2469850,-1879,34,-421,5432,79,-412,89,393,-233
1418,0,2022-09-30T20:28:25.534963,2469863,-1879,34,-421,5432,79,-412,89,393,-233
1419,0,2022-09-30T20:28:25.542877,2469870,-1873,31,-438,5181,-39,-274,89,393,-233
1420,0,2022-09-30T20:28:25.549657,2469876,-1873,31,-438,5181,-39,-274,89,393,-233
1421,0,2022-09-30T20:28:25.559540,2469889,-1873,31,-438,5181,-39,-274,89,393,-233
1422,0,2022-09-30T20:28:25.565233,2469894,-1882,29,-420,5012,114,-3,89,393,-233
1423,0,2022-09-30T20:28:25.571603,2469900,-1882,29,-420,5012,114,-3,89,393,-233
1424,0,2022-09-30T20:28:25.582492,2469910,-1889,30,-431,4935,-5,112,89,393,-233
1425,0,2022-09-30T20:28:25.591980,2469920,-1889,30,-431,4935,-5,112,89,393,-233
1426,0,2022-09-30T20:28:25.597738,2469925,-1889,30,-431,4935,-5,112,89,393,-233
1427,0,2022-09-30T20:28:25.609277,2469938,-1877,17,-450,5076,-130,53,89,393,-233
1428,0,2022-09-30T20:28:25.617188,2469946,-1877,17,-450,5076,-130,53,89,393,-233
1429,0,2022-09-30T20:28:25.623391,2469951,-1880,20,-421,5075,96,-41,89,393,-233
1430,0,2022-09-30T20:28:25.635206,2469963,-1880,20,-421,5075,96,-41,89,393,-233
1431,0,2022-09-30T20:28:25.640605,2469969,-1875,23,-411,5073,-101,-123,89,393,-233
1432,0,2022-09-30T20:28:25.647866,2469976,-1875,23,-411,5073,-101,-123,82,392,-240
1433,0,2022-09-30T20:28:25.657821,2469986,-1875,23,-411,5073,-101,-123,82,392,-240
1434,0,2022-09-30T20:28:25.663793,2469992,-1871,38,-428,4919,-276,67,82,392,-240
1435,0,2022-09-30T20:28:25.672456,2470000,-1871,38,-428,4919,-276,67,82,392,-240
