,imu,server_time,arduino_time,ax,ay,az,gx,gy,gz,mx,my,mz
0,2,2022-09-30T20:28:12.951506,2457278,-5497,370,-203,10,-357,-166,15,437,-133
1,2,2022-09-30T20:28:12.974696,2457289,-5497,370,-203,10,-357,-166,15,437,-133
2,2,2022-09-30T20:28:12.983287,2457310,-5493,371,-202,65,-368,-168,15,437,-133
3,2,2022-09-30T20:28:12.989142,2457316,-5490,374,-201,122,-366,-149,15,437,-133
4,2,2022-09-30T20:28:12.999782,2457325,-5490,374,-201,122,-366,-149,15,437,-133
5,2,2022-09-30T20:28:13.007374,2457333,-5486,378,-195,142,-357,-124,15,437,-133
6,2,2022-09-30T20:28:13.015670,2457342,-5486,378,-195,142,-357,-124,15,437,-133
7,2,2022-09-30T20:28:13.022655,2457349,-5486,378,-195,142,-357,-124,15,437,-133
8,2,2022-09-30T20:28:13.029901,2457356,-5490,386,-193,119,-327,-94,15,437,-133
9,2,2022-09-30T20:28:13.035465,2457362,-5490,386,-193,119,-327,-94,15,437,-133
10,2,2022-09-30T20:28:13.041885,2457368,-5490,386,-193,119,-327,-94,15,437,-133
11,2,2022-09-30T20:28:13.049402,2457375,-5485,388,-195,47,-293,-41,15,437,-133
12,2,2022-09-30T20:28:13.059000,2457384,-5485,388,-195,47,-293,-41,15,437,-133
13,2,2022-09-30T20:28:13.065563,2457392,-5488,389,-192,-60,-252,10,15,437,-133
14,2,2022-09-30T20:28:13.071232,2457399,-5488,389,-192,-60,-252,10,19,425,-135
15,2,2022-09-30T20:28:13.079168,2457405,-5488,389,-192,-60,-252,10,19,425,-135
16,2,2022-09-30T20:28:13.085547,2457412,-5489,389,-196,-153,-207,77,19,425,-135
17,2,2022-09-30T20:28:13.092862,2457419,-5489,389,-196,-153,-207,77,19,425,-135
18,2,2022-09-30T20:28:13.100698,2457427,-5489,389,-196,-153,-207,77,19,425,-135
19,2,2022-09-30T20:28:13.108276,2457434,-5483,386,-199,-192,-188,152,19,425,-135
20,2,2022-09-30T20:28:13.117410,2457444,-5483,386,-199,-192,-188,152,19,425,-135
21,2,2022-09-30T20:28:13.124684,2457451,-5483,386,-199,-192,-188,152,19,425,-135
22,2,2022-09-30T20:28:13.132430,2457458,-5484,381,-199,-182,-136,197,19,425,-135
23,2,2022-09-30T20:28:13.140088,2457467,-5484,381,-199,-182,-136,197,19,425,-135
24,2,2022-09-30T20:28:13.147553,2457473,-5510,377,-196,-174,-65,153,19,425,-135
25,2,2022-09-30T20:28:13.155479,2457482,-5510,377,-196,-174,-65,153,19,425,-135
26,2,2022-09-30T20:28:13.163789,2457490,-5510,377,-196,-174,-65,153,19,425,-135
27,2,2022-09-30T20:28:13.171085,2457498,-5513,384,-200,-187,-56,67,19,425,-135
28,2,2022-09-30T20:28:13.179451,2457505,-5513,384,-200,-187,-56,67,19,425,-135
29,2,2022-09-30T20:28:13.187184,2457512,-5512,398,-205,-186,-117,30,17,427,-129
30,2,2022-09-30T20:28:13.195246,2457522,-5512,398,-205,-186,-117,30,17,427,-129
31,2,2022-09-30T20:28:13.203598,2457530,-5512,398,-205,-186,-117,30,17,427,-129
32,2,2022-09-30T20:28:13.212127,2457538,-5501,397,-206,-142,-184,39,17,427,-129
33,2,2022-09-30T20:28:13.219730,2457546,-5501,397,-206,-142,-184,39,17,427,-129
34,2,2022-09-30T20:28:13.226675,2457552,-5489,397,-206,-134,-193,23,17,427,-129
35,2,2022-09-30T20:28:13.232462,2457560,-5489,397,-206,-134,-193,23,17,427,-129
36,2,2022-09-30T20:28:13.240315,2457568,-5489,397,-206,-134,-193,23,17,427,-129
37,2,2022-09-30T20:28:13.246563,2457573,-5495,387,-207,-166,-157,-13,17,427,-129
38,2,2022-09-30T20:28:13.255873,2457583,-5495,387,-207,-166,-157,-13,17,427,-129
39,2,2022-09-30T20:28:13.262236,2457589,-5495,387,-207,-166,-157,-13,17,427,-129
40,2,2022-09-30T20:28:13.268332,2457595,-5499,384,-204,-131,-141,-48,17,427,-129
41,2,2022-09-30T20:28:13.277575,2457605,-5499,384,-204,-131,-141,-48,17,427,-129
42,2,2022-09-30T20:28:13.283443,2457611,-5499,384,-204,-131,-141,-48,17,427,-129
43,2,2022-09-30T20:28:13.295643,2457617,-5493,380,-212,-63,-151,-122,17,427,-129
44,2,2022-09-30T20:28:13.305564,2457632,-5502,386,-205,-23,-140,-187,15,419,-133
45,2,2022-09-30T20:28:13.314510,2457638,-5502,386,-205,-23,-140,-187,15,419,-133
46,2,2022-09-30T20:28:13.322723,2457650,-5502,386,-205,-23,-140,-187,15,419,-133
47,2,2022-09-30T20:28:13.328897,2457656,-5505,392,-206,-51,-132,-238,15,419,-133
48,2,2022-09-30T20:28:13.337303,2457664,-5505,392,-206,-51,-132,-238,15,419,-133
49,2,2022-09-30T20:28:13.343738,2457670,-5505,392,-206,-51,-132,-238,15,419,-133
50,2,2022-09-30T20:28:13.350172,2457677,-5505,392,-206,-65,-175,-221,15,419,-133
51,2,2022-09-30T20:28:13.358388,2457686,-5505,392,-206,-65,-175,-221,15,419,-133
52,2,2022-09-30T20:28:13.364863,2457692,-5505,392,-206,-65,-175,-221,15,419,-133
53,2,2022-09-30T20:28:13.371158,2457698,-5486,388,-206,-89,-234,-165,15,419,-133
54,2,2022-09-30T20:28:13.377555,2457705,-5486,388,-206,-89,-234,-165,15,419,-133
55,2,2022-09-30T20:28:13.383346,2457710,-5486,388,-206,-89,-234,-165,15,419,-133
56,2,2022-09-30T20:28:13.392449,2457718,-5483,386,-211,-142,-226,-120,15,419,-133
57,2,2022-09-30T20:28:13.403299,2457731,-5483,386,-211,-142,-226,-120,15,419,-133
58,2,2022-09-30T20:28:13.412907,2457740,-5492,385,-206,-179,-138,-44,15,419,-133
59,2,2022-09-30T20:28:13.421928,2457749,-5492,385,-206,-179,-138,-44,15,419,-133
60,2,2022-09-30T20:28:13.429107,2457756,-5497,381,-212,-145,-124,54,17,433,-131
61,2,2022-09-30T20:28:13.440619,2457766,-5497,381,-212,-145,-124,54,17,433,-131
62,2,2022-09-30T20:28:13.447150,2457775,-5499,383,-208,-87,-126,111,17,433,-131
63,2,2022-09-30T20:28:13.459461,2457787,-5499,383,-208,-87,-126,111,17,433,-131
64,2,2022-09-30T20:28:13.465803,2457793,-5501,387,-211,-46,-97,113,17,433,-131
65,2,2022-09-30T20:28:13.474889,2457801,-5501,387,-211,-46,-97,113,17,433,-131
66,2,2022-09-30T20:28:13.483327,2457810,-5501,387,-211,-46,-97,113,17,433,-131
67,2,2022-09-30T20:28:13.489579,2457817,-5506,389,-217,-23,-100,52,17,433,-131
68,2,2022-09-30T20:28:13.497791,2457825,-5506,389,-217,-23,-100,52,17,433,-131
69,2,2022-09-30T20:28:13.503806,2457831,-5506,389,-217,-23,-100,52,17,433,-131
70,2,2022-09-30T20:28:13.511979,2457839,-5514,385,-216,-5,-156,-39,17,433,-131
71,2,2022-09-30T20:28:13.519820,2457847,-5514,385,-216,-5,-156,-39,17,433,-131
72,2,2022-09-30T20:28:13.525882,2457853,-5512,390,-212,-42,-221,-149,17,433,-131
73,2,2022-09-30T20:28:13.531645,2457860,-5512,390,-212,-42,-221,-149,17,433,-131
74,2,2022-09-30T20:28:13.537728,2457865,-5512,390,-212,-42,-221,-149,17,433,-131
75,2,2022-09-30T20:28:13.543910,2457871,-5512,390,-212,-42,-221,-149,17,433,-131
76,2,2022-09-30T20:28:13.550214,2457877,-5503,397,-212,-46,-319,-194,17,425,-131
77,2,2022-09-30T20:28:13.557840,2457885,-5503,397,-212,-46,-319,-194,17,425,-131
78,2,2022-09-30T20:28:13.563237,2457890,-5503,397,-212,-46,-319,-194,17,425,-131
79,2,2022-09-30T20:28:13.570556,2457899,-5501,393,-207,-3,-361,-161,17,425,-131
80,2,2022-09-30T20:28:13.579386,2457907,-5501,393,-207,-3,-361,-161,17,425,-131
81,2,2022-09-30T20:28:13.585568,2457913,-5499,391,-205,16,-377,-115,17,425,-131
82,2,2022-09-30T20:28:13.591456,2457919,-5499,391,-205,16,-377,-115,17,425,-131
83,2,2022-09-30T20:28:13.598968,2457926,-5499,391,-205,16,-377,-115,17,425,-131
84,2,2022-09-30T20:28:13.605316,2457932,-5495,387,-203,53,-365,-118,17,425,-131
85,2,2022-09-30T20:28:13.611001,2457938,-5495,387,-203,53,-365,-118,17,425,-131
86,2,2022-09-30T20:28:13.618196,2457946,-5495,387,-203,53,-365,-118,17,425,-131
87,2,2022-09-30T20:28:13.624067,2457952,-5495,387,-203,53,-365,-118,17,425,-131
88,2,2022-09-30T20:28:13.632013,2457959,-5496,386,-202,61,-326,-175,17,425,-131
89,2,2022-09-30T20:28:13.637500,2457965,-5496,386,-202,61,-326,-175,17,425,-131
90,2,2022-09-30T20:28:13.643254,2457970,-5496,386,-202,61,-326,-175,17,425,-131
91,2,2022-09-30T20:28:13.649115,2457976,-5496,392,-203,58,-298,-233,17,425,-131
92,2,2022-09-30T20:28:13.654936,2457982,-5496,392,-203,58,-298,-233,17,425,-131
93,2,2022-09-30T20:28:13.660623,2457988,-5496,392,-203,58,-298,-233,17,425,-131
94,2,2022-09-30T20:28:13.665965,2457994,-5496,393,-201,20,-295,-264,17,425,-131
95,2,2022-09-30T20:28:13.673493,2458001,-5496,393,-201,20,-295,-264,17,425,-131
96,2,2022-09-30T20:28:13.679183,2458007,-5496,393,-201,20,-295,-264,17,425,-131
97,2,2022-09-30T20:28:13.684852,2458012,-5496,393,-201,20,-295,-264,17,425,-131
98,2,2022-09-30T20:28:13.690410,2458018,-5492,391,-197,-35,-281,-256,16,426,-130
99,2,2022-09-30T20:28:13.705072,2458024,-5492,391,-197,-35,-281,-256,16,426,-130
100,2,2022-09-30T20:28:13.711255,2458038,-5489,390,-196,-112,-275,-218,16,426,-130
101,2,2022-09-30T20:28:13.716650,2458044,-5489,390,-196,-112,-275,-218,16,426,-130
102,2,2022-09-30T20:28:13.722287,2458050,-5489,390,-196,-112,-275,-218,16,426,-130
103,2,2022-09-30T20:28:13.727520,2458055,-5488,394,-198,-166,-256,-149,16,426,-130
104,2,2022-09-30T20:28:13.735222,2458062,-5488,394,-198,-166,-256,-149,16,426,-130
105,2,2022-09-30T20:28:13.741042,2458068,-5488,394,-198,-166,-256,-149,16,426,-130
106,2,2022-09-30T20:28:13.746546,2458074,-5485,391,-200,-194,-236,-40,16,426,-130
107,2,2022-09-30T20:28:13.752501,2458080,-5485,391,-200,-194,-236,-40,16,426,-130
108,2,2022-09-30T20:28:13.757659,2458085,-5485,391,-200,-194,-236,-40,16,426,-130
109,2,2022-09-30T20:28:13.763033,2458091,-5485,391,-200,-194,-236,-40,16,426,-130
110,2,2022-09-30T20:28:13.768795,2458096,-5489,386,-202,-171,-193,43,16,426,-130
111,2,2022-09-30T20:28:13.776684,2458104,-5489,386,-202,-171,-193,43,16,426,-130
112,2,2022-09-30T20:28:13.783215,2458110,-5489,386,-202,-171,-193,43,16,426,-130
113,2,2022-09-30T20:28:13.788914,2458117,-5490,389,-206,-167,-152,39,16,426,-130
114,2,2022-09-30T20:28:13.794779,2458122,-5490,389,-206,-167,-152,39,16,426,-130
115,2,2022-09-30T20:28:13.800448,2458128,-5490,389,-206,-167,-152,39,16,426,-130
116,2,2022-09-30T20:28:13.806049,2458133,-5499,390,-205,-169,-129,-4,17,419,-135
117,2,2022-09-30T20:28:13.811733,2458139,-5499,390,-205,-169,-129,-4,17,419,-135
118,2,2022-09-30T20:28:13.819188,2458146,-5499,390,-205,-169,-129,-4,17,419,-135
119,2,2022-09-30T20:28:13.824796,2458152,-5499,390,-205,-169,-129,-4,17,419,-135
120,2,2022-09-30T20:28:13.830443,2458158,-5503,398,-201,-186,-127,-36,17,419,-135
121,2,2022-09-30T20:28:13.839138,2458164,-5503,398,-201,-186,-127,-36,17,419,-135
122,2,2022-09-30T20:28:13.844979,2458172,-5503,398,-201,-186,-127,-36,17,419,-135
123,2,2022-09-30T20:28:13.850316,2458178,-5508,397,-211,-208,-160,-45,17,419,-135
124,2,2022-09-30T20:28:13.858287,2458185,-5508,397,-211,-208,-160,-45,17,419,-135
125,2,2022-09-30T20:28:13.864025,2458191,-5508,397,-211,-208,-160,-45,17,419,-135
126,2,2022-09-30T20:28:13.869616,2458196,-5511,392,-209,-208,-200,-58,17,419,-135
127,2,2022-09-30T20:28:13.875389,2458203,-5511,392,-209,-208,-200,-58,17,419,-135
128,2,2022-09-30T20:28:13.881166,2458209,-5511,392,-209,-208,-200,-58,17,419,-135
129,2,2022-09-30T20:28:13.886905,2458214,-5506,389,-209,-203,-242,-79,17,419,-135
130,2,2022-09-30T20:28:13.893526,2458220,-5506,389,-209,-203,-242,-79,17,419,-135
131,2,2022-09-30T20:28:13.899172,2458227,-5506,389,-209,-203,-242,-79,17,419,-135
132,2,2022-09-30T20:28:13.904600,2458232,-5506,389,-209,-203,-242,-79,17,419,-135
133,2,2022-09-30T20:28:13.910778,2458237,-5502,383,-209,-163,-272,-136,17,419,-135
134,2,2022-09-30T20:28:13.918220,2458246,-5502,383,-209,-163,-272,-136,17,419,-135
135,2,2022-09-30T20:28:13.924321,2458252,-5502,383,-209,-163,-272,-136,17,419,-135
136,2,2022-09-30T20:28:13.930703,2458258,-5503,382,-201,-135,-279,-197,23,425,-137
137,2,2022-09-30T20:28:13.936239,2458264,-5503,382,-201,-135,-279,-197,23,425,-137
138,2,2022-09-30T20:28:13.942088,2458269,-5503,382,-201,-135,-279,-197,23,425,-137
139,2,2022-09-30T20:28:13.948162,2458275,-5500,387,-201,-112,-279,-245,23,425,-137
140,2,2022-09-30T20:28:13.955506,2458283,-5500,387,-201,-112,-279,-245,23,425,-137
141,2,2022-09-30T20:28:13.961107,2458289,-5500,387,-201,-112,-279,-245,23,425,-137
142,2,2022-09-30T20:28:13.967036,2458294,-5498,382,-198,-92,-294,-232,23,425,-137
143,2,2022-09-30T20:28:13.975123,2458300,-5498,382,-198,-92,-294,-232,23,425,-137
144,2,2022-09-30T20:28:13.980856,2458308,-5498,382,-198,-92,-294,-232,23,425,-137
145,2,2022-09-30T20:28:13.986772,2458314,-5492,385,-203,-69,-292,-215,23,425,-137
146,2,2022-09-30T20:28:13.993040,2458319,-5492,385,-203,-69,-292,-215,23,425,-137
147,2,2022-09-30T20:28:13.998848,2458327,-5492,385,-203,-69,-292,-215,23,425,-137
148,2,2022-09-30T20:28:14.004969,2458333,-5492,385,-203,-69,-292,-215,23,425,-137
149,2,2022-09-30T20:28:14.011220,2458339,-5485,385,-202,-57,-272,-183,23,425,-137
150,2,2022-09-30T20:28:14.017565,2458344,-5485,385,-202,-57,-272,-183,23,425,-137
151,2,2022-09-30T20:28:14.023885,2458351,-5485,385,-202,-57,-272,-183,23,425,-137
152,2,2022-09-30T20:28:14.030229,2458358,-5492,385,-199,-46,-243,-131,23,425,-137
153,2,2022-09-30T20:28:14.038169,2458365,-5492,385,-199,-46,-243,-131,23,425,-137
154,2,2022-09-30T20:28:14.044072,2458372,-5492,385,-199,-46,-243,-131,23,425,-137
155,2,2022-09-30T20:28:14.050246,2458378,-5498,385,-194,-41,-212,-91,11,423,-137
156,2,2022-09-30T20:28:14.055574,2458383,-5498,385,-194,-41,-212,-91,11,423,-137
157,2,2022-09-30T20:28:14.061463,2458389,-5498,385,-194,-41,-212,-91,11,423,-137
158,2,2022-09-30T20:28:14.067453,2458395,-5495,383,-205,-60,-220,-89,11,423,-137
159,2,2022-09-30T20:28:14.075345,2458402,-5495,383,-205,-60,-220,-89,11,423,-137
160,2,2022-09-30T20:28:14.081369,2458408,-5495,383,-205,-60,-220,-89,11,423,-137
161,2,2022-09-30T20:28:14.087922,2458415,-5498,380,-201,-89,-217,-114,11,423,-137
162,2,2022-09-30T20:28:14.096486,2458424,-5498,380,-201,-89,-217,-114,11,423,-137
163,2,2022-09-30T20:28:14.102615,2458430,-5498,380,-201,-89,-217,-114,11,423,-137
164,2,2022-09-30T20:28:14.108677,2458436,-5506,386,-201,-138,-215,-136,11,423,-137
165,2,2022-09-30T20:28:14.118028,2458441,-5506,386,-201,-138,-215,-136,11,423,-137
166,2,2022-09-30T20:28:14.123513,2458451,-5506,386,-201,-138,-215,-136,11,423,-137
167,2,2022-09-30T20:28:14.130829,2458459,-5510,386,-196,-180,-223,-99,11,423,-137
168,2,2022-09-30T20:28:14.136587,2458464,-5510,386,-196,-180,-223,-99,11,423,-137
169,2,2022-09-30T20:28:14.142154,2458470,-5510,386,-196,-180,-223,-99,11,423,-137
170,2,2022-09-30T20:28:14.147681,2458475,-5501,379,-196,-125,-340,7,11,423,-137
171,2,2022-09-30T20:28:14.157869,2458484,-5501,379,-196,-125,-340,7,11,423,-137
172,2,2022-09-30T20:28:14.163028,2458490,-5501,379,-196,-125,-340,7,11,423,-137
173,2,2022-09-30T20:28:14.168869,2458497,-5478,381,-197,-23,-375,53,18,424,-138
174,2,2022-09-30T20:28:14.174156,2458502,-5478,381,-197,-23,-375,53,18,424,-138
175,2,2022-09-30T20:28:14.179860,2458508,-5478,381,-197,-23,-375,53,18,424,-138
176,2,2022-09-30T20:28:14.185522,2458513,-5478,391,-195,24,-283,39,18,424,-138
177,2,2022-09-30T20:28:14.191449,2458519,-5478,391,-195,24,-283,39,18,424,-138
178,2,2022-09-30T20:28:14.199160,2458526,-5478,391,-195,24,-283,39,18,424,-138
179,2,2022-09-30T20:28:14.205000,2458532,-5478,391,-195,24,-283,39,18,424,-138
180,2,2022-09-30T20:28:14.210859,2458539,-5489,401,-196,17,-156,0,18,424,-138
181,2,2022-09-30T20:28:14.219069,2458546,-5489,401,-196,17,-156,0,18,424,-138
182,2,2022-09-30T20:28:14.224961,2458552,-5489,401,-196,17,-156,0,18,424,-138
183,2,2022-09-30T20:28:14.231041,2458558,-5498,407,-199,-43,-86,-35,18,424,-138
184,2,2022-09-30T20:28:14.239189,2458566,-5498,407,-199,-43,-86,-35,18,424,-138
185,2,2022-09-30T20:28:14.245394,2458572,-5498,407,-199,-43,-86,-35,18,424,-138
186,2,2022-09-30T20:28:14.251220,2458578,-5500,412,-201,-160,-73,-69,18,424,-138
187,2,2022-09-30T20:28:14.259150,2458587,-5500,412,-201,-160,-73,-69,18,424,-138
188,2,2022-09-30T20:28:14.265137,2458593,-5500,412,-201,-160,-73,-69,18,424,-138
189,2,2022-09-30T20:28:14.271116,2458598,-5506,405,-202,-274,-105,-67,18,424,-138
190,2,2022-09-30T20:28:14.277312,2458604,-5506,405,-202,-274,-105,-67,18,424,-138
191,2,2022-09-30T20:28:14.283043,2458610,-5506,405,-202,-274,-105,-67,18,424,-138
192,2,2022-09-30T20:28:14.291526,2458618,-5502,398,-207,-338,-164,-60,18,424,-138
193,2,2022-09-30T20:28:14.299451,2458627,-5502,398,-207,-338,-164,-60,18,424,-138
194,2,2022-09-30T20:28:14.306199,2458633,-5503,393,-203,-356,-193,-54,18,424,-138
195,2,2022-09-30T20:28:14.314836,2458642,-5503,393,-203,-356,-193,-54,11,421,-131
196,2,2022-09-30T20:28:14.323072,2458650,-5503,393,-203,-356,-193,-54,11,421,-131
197,2,2022-09-30T20:28:14.330576,2458658,-5503,380,-209,-328,-209,-62,11,421,-131
198,2,2022-09-30T20:28:14.337938,2458665,-5503,380,-209,-328,-209,-62,11,421,-131
199,2,2022-09-30T20:28:14.344002,2458672,-5503,380,-209,-328,-209,-62,11,421,-131
200,2,2022-09-30T20:28:14.351389,2458679,-5489,379,-215,-293,-193,-137,11,421,-131
201,2,2022-09-30T20:28:14.360571,2458688,-5489,379,-215,-293,-193,-137,11,421,-131
202,2,2022-09-30T20:28:14.366364,2458694,-5509,380,-206,-310,-109,-192,11,421,-131
203,2,2022-09-30T20:28:14.373965,2458701,-5509,380,-206,-310,-109,-192,11,421,-131
204,2,2022-09-30T20:28:14.385756,2458712,-5509,380,-206,-310,-109,-192,11,421,-131
205,2,2022-09-30T20:28:14.400145,2458727,-5505,374,-217,-254,-149,-180,11,421,-131
206,2,2022-09-30T20:28:14.411843,2458738,-5501,370,-209,-89,-237,-125,11,421,-131
207,2,2022-09-30T20:28:14.429373,2458757,-5494,375,-210,45,-250,-103,11,429,-133
208,2,2022-09-30T20:28:14.441363,2458767,-5494,375,-210,45,-250,-103,11,429,-133
209,2,2022-09-30T20:28:14.452838,2458780,-5504,385,-204,90,-216,-124,11,429,-133
210,2,2022-09-30T20:28:14.469372,2458796,-5506,393,-201,47,-252,-152,11,429,-133
211,2,2022-09-30T20:28:14.487518,2458812,-5506,393,-201,47,-252,-152,11,429,-133
212,2,2022-09-30T20:28:14.500152,2458828,-5507,399,-209,-68,-299,-162,11,429,-133
213,2,2022-09-30T20:28:14.515157,2458840,-5507,389,-199,-189,-357,-148,11,429,-133
214,2,2022-09-30T20:28:14.535876,2458862,-5493,377,-198,-220,-411,-107,11,429,-133
215,2,2022-09-30T20:28:14.550321,2458877,-5480,372,-197,-154,-371,-67,20,424,-132
216,2,2022-09-30T20:28:14.559874,2458887,-5480,372,-197,-154,-371,-67,20,424,-132
217,2,2022-09-30T20:28:14.566522,2458894,-5482,378,-193,-41,-296,-45,20,424,-132
218,2,2022-09-30T20:28:14.577761,2458905,-5482,378,-193,-41,-296,-45,20,424,-132
219,2,2022-09-30T20:28:14.585097,2458912,-5482,378,-193,-41,-296,-45,20,424,-132
220,2,2022-09-30T20:28:14.592509,2458919,-5489,384,-193,45,-208,-56,20,424,-132
221,2,2022-09-30T20:28:14.604155,2458932,-5489,384,-193,45,-208,-56,20,424,-132
222,2,2022-09-30T20:28:14.609906,2458937,-5502,391,-195,75,-165,-85,20,424,-132
223,2,2022-09-30T20:28:14.622696,2458948,-5502,391,-195,75,-165,-85,20,424,-132
224,2,2022-09-30T20:28:14.628800,2458956,-5500,396,-196,11,-169,-132,20,424,-132
225,2,2022-09-30T20:28:14.640326,2458968,-5500,396,-196,11,-169,-132,20,424,-132
226,2,2022-09-30T20:28:14.647360,2458974,-5501,400,-195,-98,-205,-152,20,424,-132
227,2,2022-09-30T20:28:14.658094,2458985,-5501,400,-195,-98,-205,-152,20,424,-132
228,2,2022-09-30T20:28:14.668845,2458994,-5493,396,-196,-195,-230,-119,12,428,-134
229,2,2022-09-30T20:28:14.677927,2459005,-5493,396,-196,-195,-230,-119,12,428,-134
230,2,2022-09-30T20:28:14.693168,2459020,-5492,388,-197,-237,-225,-49,12,428,-134
231,2,2022-09-30T20:28:14.703372,2459031,-5492,388,-197,-237,-225,-49,12,428,-134
232,2,2022-09-30T20:28:14.711952,2459040,-5491,384,-202,-207,-185,14,12,428,-134
233,2,2022-09-30T20:28:14.720571,2459048,-5491,384,-202,-207,-185,14,12,428,-134
234,2,2022-09-30T20:28:14.726244,2459054,-5495,381,-201,-154,-152,37,12,428,-134
235,2,2022-09-30T20:28:14.736163,2459064,-5495,381,-201,-154,-152,37,12,428,-134
236,2,2022-09-30T20:28:14.744816,2459072,-5495,381,-201,-154,-152,37,12,428,-134
237,2,2022-09-30T20:28:14.752866,2459080,-5503,385,-204,-120,-151,22,12,428,-134
238,2,2022-09-30T20:28:14.762793,2459090,-5503,385,-204,-120,-151,22,12,428,-134
239,2,2022-09-30T20:28:14.772682,2459101,-5506,388,-202,-88,-175,-12,12,428,-134
240,2,2022-09-30T20:28:14.782661,2459111,-5506,388,-202,-88,-175,-12,12,428,-134
241,2,2022-09-30T20:28:14.792925,2459120,-5503,392,-201,-84,-220,-65,17,423,-129
242,2,2022-09-30T20:28:14.801930,2459129,-5503,392,-201,-84,-220,-65,17,423,-129
243,2,2022-09-30T20:28:14.807318,2459136,-5499,395,-204,-81,-265,-105,17,423,-129
244,2,2022-09-30T20:28:14.812597,2459141,-5499,395,-204,-81,-265,-105,17,423,-129
245,2,2022-09-30T20:28:14.819421,2459147,-5499,395,-204,-81,-265,-105,17,423,-129
246,2,2022-09-30T20:28:14.827834,2459153,-5499,395,-204,-81,-265,-105,17,423,-129
247,2,2022-09-30T20:28:14.837070,2459161,-5499,396,-196,-81,-275,-116,17,423,-129
248,2,2022-09-30T20:28:14.848874,2459176,-5491,398,-200,-71,-260,-97,17,423,-129
249,2,2022-09-30T20:28:14.870548,2459195,-5491,397,-202,-77,-236,-60,17,423,-129
250,2,2022-09-30T20:28:14.880657,2459208,-5491,397,-202,-77,-236,-60,17,423,-129
251,2,2022-09-30T20:28:14.890632,2459217,-5496,400,-202,-91,-218,-43,17,423,-129
252,2,2022-09-30T20:28:14.905396,2459233,-5496,400,-202,-91,-218,-43,17,423,-129
253,2,2022-09-30T20:28:14.911851,2459239,-5504,395,-192,-121,-209,-54,17,423,-129
254,2,2022-09-30T20:28:14.919844,2459247,-5504,395,-192,-121,-209,-54,17,423,-129
255,2,2022-09-30T20:28:14.925130,2459253,-5504,395,-192,-121,-209,-54,17,423,-129
256,2,2022-09-30T20:28:14.937287,2459258,-5500,394,-194,-141,-213,-99,25,421,-139
257,2,2022-09-30T20:28:14.948340,2459276,-5496,394,-196,-147,-224,-143,25,421,-139
258,2,2022-09-30T20:28:14.956230,2459284,-5496,394,-196,-147,-224,-143,25,421,-139
259,2,2022-09-30T20:28:14.962160,2459289,-5496,394,-196,-147,-224,-143,25,421,-139
260,2,2022-09-30T20:28:14.967851,2459295,-5492,393,-201,-141,-211,-161,25,421,-139
261,2,2022-09-30T20:28:14.977571,2459304,-5492,393,-201,-141,-211,-161,25,421,-139
262,2,2022-09-30T20:28:14.983989,2459312,-5492,393,-201,-141,-211,-161,25,421,-139
263,2,2022-09-30T20:28:14.989425,2459317,-5491,389,-200,-111,-194,-139,25,421,-139
264,2,2022-09-30T20:28:15.000683,2459326,-5491,389,-200,-111,-194,-139,25,421,-139
265,2,2022-09-30T20:28:15.007116,2459334,-5496,390,-197,-100,-174,-122,25,421,-139
266,2,2022-09-30T20:28:15.014703,2459340,-5496,390,-197,-100,-174,-122,25,421,-139
267,2,2022-09-30T20:28:15.024021,2459352,-5496,390,-197,-100,-174,-122,25,421,-139
268,2,2022-09-30T20:28:15.035264,2459363,-5501,391,-199,-117,-168,-132,25,421,-139
269,2,2022-09-30T20:28:15.046444,2459370,-5501,391,-199,-117,-168,-132,25,421,-139
270,2,2022-09-30T20:28:15.055948,2459382,-5498,390,-194,-158,-184,-158,12,420,-128
271,2,2022-09-30T20:28:15.065521,2459393,-5498,390,-194,-158,-184,-158,12,420,-128
272,2,2022-09-30T20:28:15.073109,2459401,-5490,383,-195,-194,-225,-188,12,420,-128
273,2,2022-09-30T20:28:15.082942,2459410,-5490,383,-195,-194,-225,-188,12,420,-128
274,2,2022-09-30T20:28:15.088858,2459416,-5496,384,-202,-255,-220,-198,12,420,-128
275,2,2022-09-30T20:28:15.096564,2459424,-5496,384,-202,-255,-220,-198,12,420,-128
276,2,2022-09-30T20:28:15.104045,2459431,-5496,384,-202,-255,-220,-198,12,420,-128
277,2,2022-09-30T20:28:15.111166,2459439,-5501,385,-196,-317,-183,-153,12,420,-128
278,2,2022-09-30T20:28:15.119986,2459448,-5501,385,-196,-317,-183,-153,12,420,-128
279,2,2022-09-30T20:28:15.126400,2459454,-5501,385,-196,-317,-183,-153,12,420,-128
280,2,2022-09-30T20:28:15.135764,2459462,-5495,376,-197,-268,-244,-16,12,420,-128
281,2,2022-09-30T20:28:15.148289,2459472,-5495,376,-197,-268,-244,-16,12,420,-128
282,2,2022-09-30T20:28:15.155692,2459483,-5479,377,-203,-151,-284,106,12,420,-128
283,2,2022-09-30T20:28:15.165949,2459493,-5479,377,-203,-151,-284,106,12,420,-128
284,2,2022-09-30T20:28:15.176638,2459504,-5470,384,-198,-58,-184,133,19,427,-131
285,2,2022-09-30T20:28:15.191929,2459518,-5489,398,-197,-36,-30,93,19,427,-131
286,2,2022-09-30T20:28:15.205996,2459533,-5489,398,-197,-36,-30,93,19,427,-131
287,2,2022-09-30T20:28:15.214792,2459542,-5503,406,-202,-80,24,37,19,427,-131
288,2,2022-09-30T20:28:15.239208,2459554,-5503,406,-202,-80,24,37,19,427,-131
289,2,2022-09-30T20:28:15.253256,2459580,-5508,404,-205,-315,-51,-43,19,427,-131
290,2,2022-09-30T20:28:15.261037,2459587,-5508,404,-205,-315,-51,-43,19,427,-131
291,2,2022-09-30T20:28:15.266884,2459594,-5505,395,-208,-372,-138,-51,19,427,-131
292,2,2022-09-30T20:28:15.278030,2459606,-5505,395,-208,-372,-138,-51,19,427,-131
293,2,2022-09-30T20:28:15.285982,2459613,-5505,395,-208,-372,-138,-51,19,427,-131
294,2,2022-09-30T20:28:15.297541,2459623,-5498,388,-210,-345,-197,-17,11,419,-129
295,2,2022-09-30T20:28:15.305828,2459633,-5498,388,-210,-345,-197,-17,11,419,-129
296,2,2022-09-30T20:28:15.313298,2459640,-5492,386,-218,-268,-199,22,11,419,-129
297,2,2022-09-30T20:28:15.321167,2459648,-5492,386,-218,-268,-199,22,11,419,-129
298,2,2022-09-30T20:28:15.327648,2459655,-5493,391,-210,-189,-169,14,11,419,-129
299,2,2022-09-30T20:28:15.336162,2459663,-5493,391,-210,-189,-169,14,11,419,-129
300,2,2022-09-30T20:28:15.344192,2459671,-5493,391,-210,-189,-169,14,11,419,-129
301,2,2022-09-30T20:28:15.353844,2459681,-5510,400,-205,-186,-131,-27,11,419,-129
302,2,2022-09-30T20:28:15.361080,2459688,-5510,400,-205,-186,-131,-27,11,419,-129
303,2,2022-09-30T20:28:15.366921,2459695,-5504,398,-211,-195,-192,-62,11,419,-129
304,2,2022-09-30T20:28:15.377260,2459705,-5504,398,-211,-195,-192,-62,11,419,-129
305,2,2022-09-30T20:28:15.384664,2459712,-5504,398,-211,-195,-192,-62,11,419,-129
306,2,2022-09-30T20:28:15.391449,2459719,-5496,400,-207,-185,-260,-80,11,419,-129
307,2,2022-09-30T20:28:15.401559,2459729,-5496,400,-207,-185,-260,-80,11,419,-129
308,2,2022-09-30T20:28:15.407298,2459735,-5490,397,-209,-173,-233,-80,11,419,-129
309,2,2022-09-30T20:28:15.416115,2459744,-5490,397,-209,-173,-233,-80,12,434,-130
310,2,2022-09-30T20:28:15.426069,2459754,-5490,397,-209,-173,-233,-80,12,434,-130
311,2,2022-09-30T20:28:15.433831,2459761,-5494,397,-204,-177,-177,-80,12,434,-130
312,2,2022-09-30T20:28:15.442395,2459770,-5494,397,-204,-177,-177,-80,12,434,-130
313,2,2022-09-30T20:28:15.449761,2459777,-5503,397,-209,-175,-149,-97,12,434,-130
314,2,2022-09-30T20:28:15.460564,2459788,-5503,397,-209,-175,-149,-97,12,434,-130
315,2,2022-09-30T20:28:15.466661,2459794,-5503,397,-209,-175,-149,-97,12,434,-130
316,2,2022-09-30T20:28:15.475100,2459802,-5509,394,-211,-178,-171,-106,12,434,-130
317,2,2022-09-30T20:28:15.482996,2459810,-5509,394,-211,-178,-171,-106,12,434,-130
318,2,2022-09-30T20:28:15.488866,2459816,-5507,392,-213,-180,-230,-139,12,434,-130
319,2,2022-09-30T20:28:15.496143,2459824,-5507,392,-213,-180,-230,-139,12,434,-130
320,2,2022-09-30T20:28:15.502780,2459831,-5507,392,-213,-180,-230,-139,12,434,-130
321,2,2022-09-30T20:28:15.508565,2459836,-5503,392,-210,-180,-285,-159,12,434,-130
322,2,2022-09-30T20:28:15.516452,2459844,-5503,392,-210,-180,-285,-159,12,434,-130
323,2,2022-09-30T20:28:15.524554,2459851,-5503,392,-210,-180,-285,-159,12,434,-130
324,2,2022-09-30T20:28:15.532887,2459860,-5498,389,-209,-164,-315,-163,12,434,-130
325,2,2022-09-30T20:28:15.540570,2459868,-5498,389,-209,-164,-315,-163,12,434,-130
326,2,2022-09-30T20:28:15.547735,2459875,-5493,384,-202,-132,-304,-170,12,434,-130
327,2,2022-09-30T20:28:15.556575,2459884,-5493,384,-202,-132,-304,-170,16,424,-128
328,2,2022-09-30T20:28:15.563908,2459891,-5493,384,-202,-132,-304,-170,16,424,-128
329,2,2022-09-30T20:28:15.571190,2459897,-5492,383,-201,-91,-280,-166,16,424,-128
330,2,2022-09-30T20:28:15.581008,2459909,-5492,383,-201,-91,-280,-166,16,424,-128
331,2,2022-09-30T20:28:15.586608,2459914,-5492,383,-201,-91,-280,-166,16,424,-128
332,2,2022-09-30T20:28:15.592327,2459920,-5494,387,-202,-41,-248,-166,16,424,-128
333,2,2022-09-30T20:28:15.603001,2459930,-5494,387,-202,-41,-248,-166,16,424,-128
334,2,2022-09-30T20:28:15.608917,2459936,-5490,389,-203,-32,-229,-177,16,424,-128
335,2,2022-09-30T20:28:15.620110,2459948,-5490,389,-203,-32,-229,-177,16,424,-128
336,2,2022-09-30T20:28:15.626370,2459954,-5490,389,-203,-32,-229,-177,16,424,-128
337,2,2022-09-30T20:28:15.633098,2459961,-5494,392,-203,-69,-210,-174,16,424,-128
338,2,2022-09-30T20:28:15.640385,2459968,-5494,392,-203,-69,-210,-174,16,424,-128
339,2,2022-09-30T20:28:15.647063,2459974,-5494,392,-203,-69,-210,-174,16,424,-128
340,2,2022-09-30T20:28:15.655154,2459982,-5496,394,-204,-136,-193,-154,16,424,-128
341,2,2022-09-30T20:28:15.662599,2459991,-5496,394,-204,-136,-193,-154,16,424,-128
342,2,2022-09-30T20:28:15.668556,2459996,-5488,391,-192,-175,-210,-90,18,422,-134
343,2,2022-09-30T20:28:15.677933,2460006,-5488,391,-192,-175,-210,-90,18,422,-134
344,2,2022-09-30T20:28:15.685136,2460013,-5488,391,-192,-175,-210,-90,18,422,-134
345,2,2022-09-30T20:28:15.690581,2460018,-5489,392,-202,-165,-200,-5,18,422,-134
346,2,2022-09-30T20:28:15.697097,2460024,-5489,392,-202,-165,-200,-5,18,422,-134
347,2,2022-09-30T20:28:15.705293,2460033,-5489,392,-202,-165,-200,-5,18,422,-134
348,2,2022-09-30T20:28:15.712856,2460041,-5490,390,-207,-142,-165,57,18,422,-134
349,2,2022-09-30T20:28:15.721592,2460047,-5490,390,-207,-142,-165,57,18,422,-134
350,2,2022-09-30T20:28:15.728039,2460055,-5494,392,-205,-135,-148,75,18,422,-134
351,2,2022-09-30T20:28:15.736707,2460064,-5494,392,-205,-135,-148,75,18,422,-134
352,2,2022-09-30T20:28:15.743967,2460071,-5494,392,-205,-135,-148,75,18,422,-134
353,2,2022-09-30T20:28:15.752531,2460080,-5500,395,-203,-129,-121,62,18,422,-134
354,2,2022-09-30T20:28:15.761129,2460088,-5500,395,-203,-129,-121,62,18,422,-134
355,2,2022-09-30T20:28:15.766212,2460094,-5500,395,-203,-129,-121,62,18,422,-134
356,2,2022-09-30T20:28:15.774448,2460102,-5505,395,-204,-137,-133,19,18,422,-134
357,2,2022-09-30T20:28:15.781051,2460108,-5505,395,-204,-137,-133,19,18,422,-134
358,2,2022-09-30T20:28:15.786434,2460114,-5505,395,-204,-137,-133,19,18,422,-134
359,2,2022-09-30T20:28:15.792926,2460121,-5503,396,-200,-138,-160,-39,12,422,-136
360,2,2022-09-30T20:28:15.802800,2460131,-5503,396,-200,-138,-160,-39,12,422,-136
361,2,2022-09-30T20:28:15.808111,2460136,-5497,399,-204,-138,-175,-82,12,422,-136
362,2,2022-09-30T20:28:15.814898,2460142,-5497,399,-204,-138,-175,-82,12,422,-136
363,2,2022-09-30T20:28:15.821759,2460149,-5497,399,-204,-138,-175,-82,12,422,-136
364,2,2022-09-30T20:28:15.827193,2460155,-5500,399,-204,-146,-183,-84,12,422,-136
365,2,2022-09-30T20:28:15.834181,2460162,-5500,399,-204,-146,-183,-84,12,422,-136
366,2,2022-09-30T20:28:15.839705,2460168,-5500,399,-204,-146,-183,-84,12,422,-136
367,2,2022-09-30T20:28:15.845118,2460173,-5500,399,-204,-146,-183,-84,12,422,-136
368,2,2022-09-30T20:28:15.851427,2460179,-5500,396,-207,-138,-199,-68,12,422,-136
369,2,2022-09-30T20:28:15.858106,2460186,-5500,396,-207,-138,-199,-68,12,422,-136
370,2,2022-09-30T20:28:15.863526,2460191,-5500,396,-207,-138,-199,-68,12,422,-136
371,2,2022-09-30T20:28:15.868928,2460196,-5499,401,-208,-143,-198,-60,12,422,-136
372,2,2022-09-30T20:28:15.875067,2460203,-5499,401,-208,-143,-198,-60,12,422,-136
373,2,2022-09-30T20:28:15.880824,2460208,-5499,401,-208,-143,-198,-60,12,422,-136
374,2,2022-09-30T20:28:15.886532,2460215,-5499,401,-208,-143,-198,-60,12,422,-136
375,2,2022-09-30T20:28:15.892748,2460221,-5498,396,-209,-135,-183,-83,12,422,-136
376,2,2022-09-30T20:28:15.901843,2460229,-5498,396,-209,-135,-183,-83,12,422,-136
377,2,2022-09-30T20:28:15.907194,2460235,-5500,396,-213,-145,-187,-108,12,422,-136
378,2,2022-09-30T20:28:15.913946,2460241,-5500,396,-213,-145,-187,-108,14,428,-136
379,2,2022-09-30T20:28:15.922062,2460250,-5500,396,-213,-145,-187,-108,14,428,-136
380,2,2022-09-30T20:28:15.928344,2460256,-5495,397,-211,-144,-182,-138,14,428,-136
381,2,2022-09-30T20:28:15.936115,2460264,-5495,397,-211,-144,-182,-138,14,428,-136
382,2,2022-09-30T20:28:15.943445,2460271,-5495,397,-211,-144,-182,-138,14,428,-136
383,2,2022-09-30T20:28:15.954096,2460281,-5499,397,-210,-156,-188,-161,14,428,-136
384,2,2022-09-30T20:28:15.964328,2460293,-5499,397,-210,-156,-188,-161,14,428,-136
385,2,2022-09-30T20:28:15.971598,2460299,-5500,396,-206,-143,-199,-149,14,428,-136
386,2,2022-09-30T20:28:15.978746,2460306,-5500,396,-206,-143,-199,-149,14,428,-136
387,2,2022-09-30T20:28:15.983838,2460312,-5500,396,-206,-143,-199,-149,14,428,-136
388,2,2022-09-30T20:28:15.990106,2460318,-5502,394,-205,-134,-213,-152,14,428,-136
389,2,2022-09-30T20:28:15.996733,2460324,-5502,394,-205,-134,-213,-152,14,428,-136
390,2,2022-09-30T20:28:16.002363,2460331,-5502,394,-205,-134,-213,-152,14,428,-136
391,2,2022-09-30T20:28:16.007368,2460336,-5489,390,-214,-118,-228,-159,14,428,-136
392,2,2022-09-30T20:28:16.013965,2460342,-5489,390,-214,-118,-228,-159,14,428,-136
393,2,2022-09-30T20:28:16.020516,2460348,-5489,390,-214,-118,-228,-159,14,428,-136
394,2,2022-09-30T20:28:16.025636,2460354,-5489,390,-214,-118,-228,-159,14,428,-136
395,2,2022-09-30T20:28:16.031953,2460360,-5490,391,-211,-105,-215,-191,8,430,-124
396,2,2022-09-30T20:28:16.038522,2460366,-5490,391,-211,-105,-215,-191,8,430,-124
397,2,2022-09-30T20:28:16.043897,2460371,-5490,391,-211,-105,-215,-191,8,430,-124
398,2,2022-09-30T20:28:16.052106,2460380,-5503,385,-204,-125,-182,-228,8,430,-124
399,2,2022-09-30T20:28:16.058719,2460387,-5503,385,-204,-125,-182,-228,8,430,-124
400,2,2022-09-30T20:28:16.064457,2460392,-5503,385,-204,-125,-182,-228,8,430,-124
401,2,2022-09-30T20:28:16.071983,2460399,-5507,392,-201,-159,-198,-208,8,430,-124
402,2,2022-09-30T20:28:16.081077,2460408,-5507,392,-201,-159,-198,-208,8,430,-124
403,2,2022-09-30T20:28:16.087312,2460414,-5507,392,-201,-159,-198,-208,8,430,-124
404,2,2022-09-30T20:28:16.094683,2460422,-5496,391,-205,-143,-250,-108,8,430,-124
405,2,2022-09-30T20:28:16.104244,2460432,-5496,391,-205,-143,-250,-108,8,430,-124
406,2,2022-09-30T20:28:16.111175,2460439,-5488,391,-208,-64,-286,19,8,430,-124
407,2,2022-09-30T20:28:16.117750,2460445,-5488,391,-208,-64,-286,19,8,430,-124
408,2,2022-09-30T20:28:16.124011,2460451,-5488,391,-208,-64,-286,19,8,430,-124
409,2,2022-09-30T20:28:16.130241,2460459,-5481,396,-210,-27,-243,47,8,430,-124
410,2,2022-09-30T20:28:16.137679,2460466,-5481,396,-210,-27,-243,47,8,430,-124
411,2,2022-09-30T20:28:16.143649,2460471,-5481,396,-210,-27,-243,47,8,430,-124
412,2,2022-09-30T20:28:16.151053,2460479,-5490,396,-206,-62,-164,-7,8,430,-124
413,2,2022-09-30T20:28:16.157553,2460485,-5490,396,-206,-62,-164,-7,8,430,-124
414,2,2022-09-30T20:28:16.163002,2460490,-5490,396,-206,-62,-164,-7,8,430,-124
415,2,2022-09-30T20:28:16.168575,2460496,-5498,404,-198,-91,-133,-66,9,427,-133
416,2,2022-09-30T20:28:16.177300,2460506,-5498,404,-198,-91,-133,-66,9,427,-133
417,2,2022-09-30T20:28:16.183737,2460512,-5498,404,-198,-91,-133,-66,9,427,-133
418,2,2022-09-30T20:28:16.190666,2460518,-5502,403,-207,-134,-134,-118,9,427,-133
419,2,2022-09-30T20:28:16.197084,2460525,-5502,403,-207,-134,-134,-118,9,427,-133
420,2,2022-09-30T20:28:16.202716,2460530,-5502,403,-207,-134,-134,-118,9,427,-133
421,2,2022-09-30T20:28:16.208219,2460536,-5503,403,-208,-186,-134,-142,9,427,-133
422,2,2022-09-30T20:28:16.214057,2460541,-5503,403,-208,-186,-134,-142,9,427,-133
423,2,2022-09-30T20:28:16.220857,2460549,-5503,403,-208,-186,-134,-142,9,427,-133
424,2,2022-09-30T20:28:16.226089,2460554,-5503,403,-208,-186,-134,-142,9,427,-133
425,2,2022-09-30T20:28:16.232235,2460560,-5504,402,-212,-222,-135,-145,9,427,-133
426,2,2022-09-30T20:28:16.239277,2460567,-5504,402,-212,-222,-135,-145,9,427,-133
427,2,2022-09-30T20:28:16.244915,2460572,-5504,402,-212,-222,-135,-145,9,427,-133
428,2,2022-09-30T20:28:16.252009,2460580,-5499,394,-206,-236,-140,-114,9,427,-133
429,2,2022-09-30T20:28:16.258732,2460587,-5499,394,-206,-236,-140,-114,9,427,-133
430,2,2022-09-30T20:28:16.263877,2460592,-5499,394,-206,-236,-140,-114,9,427,-133
431,2,2022-09-30T20:28:16.270994,2460598,-5493,389,-217,-212,-166,-99,9,427,-133
432,2,2022-09-30T20:28:16.278471,2460606,-5493,389,-217,-212,-166,-99,9,427,-133
433,2,2022-09-30T20:28:16.283630,2460612,-5493,389,-217,-212,-166,-99,9,427,-133
434,2,2022-09-30T20:28:16.289832,2460618,-5495,394,-214,-183,-174,-123,11,425,-121
435,2,2022-09-30T20:28:16.297104,2460624,-5495,394,-214,-183,-174,-123,11,425,-121
436,2,2022-09-30T20:28:16.302472,2460631,-5495,394,-214,-183,-174,-123,11,425,-121
437,2,2022-09-30T20:28:16.307801,2460636,-5504,389,-212,-196,-142,-151,11,425,-121
438,2,2022-09-30T20:28:16.314275,2460642,-5504,389,-212,-196,-142,-151,11,425,-121
439,2,2022-09-30T20:28:16.321649,2460649,-5504,389,-212,-196,-142,-151,11,425,-121
440,2,2022-09-30T20:28:16.327017,2460655,-5504,389,-212,-196,-142,-151,11,425,-121
441,2,2022-09-30T20:28:16.333814,2460661,-5502,388,-213,-171,-192,-140,11,425,-121
442,2,2022-09-30T20:28:16.339204,2460666,-5502,388,-213,-171,-192,-140,11,425,-121
443,2,2022-09-30T20:28:16.345113,2460673,-5502,388,-213,-171,-192,-140,11,425,-121
444,2,2022-09-30T20:28:16.354512,2460682,-5499,386,-206,-125,-226,-130,11,425,-121
445,2,2022-09-30T20:28:16.361592,2460689,-5499,386,-206,-125,-226,-130,11,425,-121
446,2,2022-09-30T20:28:16.367275,2460695,-5499,386,-206,-125,-226,-130,11,425,-121
447,2,2022-09-30T20:28:16.375323,2460703,-5495,386,-214,-98,-202,-147,11,425,-121
448,2,2022-09-30T20:28:16.382937,2460710,-5495,386,-214,-98,-202,-147,11,425,-121
449,2,2022-09-30T20:28:16.388413,2460717,-5495,389,-214,-83,-180,-159,11,425,-121
450,2,2022-09-30T20:28:16.396987,2460724,-5495,389,-214,-83,-180,-159,11,425,-121
451,2,2022-09-30T20:28:16.403999,2460732,-5495,389,-214,-83,-180,-159,11,425,-121
452,2,2022-09-30T20:28:16.410547,2460738,-5502,391,-207,-77,-200,-145,20,426,-134
453,2,2022-09-30T20:28:16.417158,2460744,-5502,391,-207,-77,-200,-145,20,426,-134
454,2,2022-09-30T20:28:16.425260,2460752,-5502,391,-207,-77,-200,-145,20,426,-134
455,2,2022-09-30T20:28:16.431073,2460759,-5505,394,-210,-80,-232,-113,20,426,-134
456,2,2022-09-30T20:28:16.437491,2460766,-5505,394,-210,-80,-232,-113,20,426,-134
457,2,2022-09-30T20:28:16.442548,2460771,-5505,394,-210,-80,-232,-113,20,426,-134
458,2,2022-09-30T20:28:16.448144,2460776,-5504,391,-215,-111,-259,-77,20,426,-134
459,2,2022-09-30T20:28:16.455079,2460782,-5504,391,-215,-111,-259,-77,20,426,-134
460,2,2022-09-30T20:28:16.462290,2460790,-5504,391,-215,-111,-259,-77,20,426,-134
461,2,2022-09-30T20:28:16.467418,2460795,-5505,389,-210,-126,-282,-61,20,426,-134
462,2,2022-09-30T20:28:16.474815,2460803,-5505,389,-210,-126,-282,-61,20,426,-134
463,2,2022-09-30T20:28:16.480944,2460809,-5505,389,-210,-126,-282,-61,20,426,-134
464,2,2022-09-30T20:28:16.486238,2460814,-5505,389,-210,-126,-282,-61,20,426,-134
465,2,2022-09-30T20:28:16.491519,2460819,-5494,388,-209,-121,-274,-63,20,426,-134
466,2,2022-09-30T20:28:16.498921,2460826,-5494,388,-209,-121,-274,-63,20,426,-134
467,2,2022-09-30T20:28:16.504094,2460832,-5494,388,-209,-121,-274,-63,20,426,-134
468,2,2022-09-30T20:28:16.510193,2460838,-5497,389,-208,-119,-259,-77,20,426,-134
469,2,2022-09-30T20:28:16.516623,2460845,-5497,389,-208,-119,-259,-77,20,426,-134
470,2,2022-09-30T20:28:16.523735,2460851,-5497,389,-208,-119,-259,-77,20,426,-134
471,2,2022-09-30T20:28:16.528990,2460857,-5493,389,-210,-116,-233,-103,17,423,-129
472,2,2022-09-30T20:28:16.537648,2460865,-5493,389,-210,-116,-233,-103,17,423,-129
473,2,2022-09-30T20:28:16.544461,2460872,-5493,389,-210,-116,-233,-103,17,423,-129
474,2,2022-09-30T20:28:16.552112,2460880,-5494,392,-210,-118,-206,-127,17,423,-129
475,2,2022-09-30T20:28:16.558751,2460887,-5494,392,-210,-118,-206,-127,17,423,-129
476,2,2022-09-30T20:28:16.563851,2460892,-5494,392,-210,-118,-206,-127,17,423,-129
477,2,2022-09-30T20:28:16.570843,2460898,-5497,394,-206,-145,-182,-140,17,423,-129
478,2,2022-09-30T20:28:16.578277,2460906,-5497,394,-206,-145,-182,-140,17,423,-129
479,2,2022-09-30T20:28:16.583814,2460911,-5497,394,-206,-145,-182,-140,17,423,-129
480,2,2022-09-30T20:28:16.590337,2460918,-5497,391,-212,-189,-160,-147,17,423,-129
481,2,2022-09-30T20:28:16.598299,2460923,-5497,391,-212,-189,-160,-147,17,423,-129
482,2,2022-09-30T20:28:16.603999,2460932,-5497,391,-212,-189,-160,-147,17,423,-129
483,2,2022-09-30T20:28:16.610582,2460939,-5496,391,-210,-233,-167,-129,17,423,-129
484,2,2022-09-30T20:28:16.619101,2460947,-5496,391,-210,-233,-167,-129,17,423,-129
485,2,2022-09-30T20:28:16.625598,2460953,-5496,391,-210,-233,-167,-129,17,423,-129
486,2,2022-09-30T20:28:16.631786,2460960,-5496,391,-210,-233,-167,-129,17,423,-129
487,2,2022-09-30T20:28:16.637754,2460965,-5496,391,-210,-233,-167,-129,17,423,-129
488,2,2022-09-30T20:28:16.643011,2460971,-5496,391,-210,-233,-167,-129,17,423,-129
489,2,2022-09-30T20:28:16.648837,2460977,-5498,387,-213,-253,-174,-60,8,424,-134
490,2,2022-09-30T20:28:16.655128,2460983,-5498,387,-213,-253,-174,-60,8,424,-134
491,2,2022-09-30T20:28:16.661414,2460989,-5498,387,-213,-253,-174,-60,8,424,-134
492,2,2022-09-30T20:28:16.666656,2460994,-5498,387,-213,-253,-174,-60,8,424,-134
493,2,2022-09-30T20:28:16.673733,2461001,-5501,386,-210,-230,-174,-24,8,424,-134
494,2,2022-09-30T20:28:16.680591,2461008,-5501,386,-210,-230,-174,-24,8,424,-134
495,2,2022-09-30T20:28:16.685808,2461014,-5501,386,-210,-230,-174,-24,8,424,-134
496,2,2022-09-30T20:28:16.692052,2461020,-5497,389,-218,-197,-178,-4,8,424,-134
497,2,2022-09-30T20:28:16.697792,2461025,-5497,389,-218,-197,-178,-4,8,424,-134
498,2,2022-09-30T20:28:16.704068,2461032,-5497,389,-218,-197,-178,-4,8,424,-134
499,2,2022-09-30T20:28:16.708992,2461037,-5500,390,-218,-161,-175,-1,8,424,-134
500,2,2022-09-30T20:28:16.715444,2461043,-5500,390,-218,-161,-175,-1,8,424,-134
501,2,2022-09-30T20:28:16.722827,2461049,-5500,390,-218,-161,-175,-1,8,424,-134
502,2,2022-09-30T20:28:16.728756,2461057,-5502,393,-217,-126,-185,-13,8,424,-134
503,2,2022-09-30T20:28:16.737787,2461065,-5502,393,-217,-126,-185,-13,8,424,-134
504,2,2022-09-30T20:28:16.745399,2461073,-5502,393,-217,-126,-185,-13,8,424,-134
505,2,2022-09-30T20:28:16.753809,2461081,-5502,393,-213,-116,-223,-33,8,424,-134
506,2,2022-09-30T20:28:16.762914,2461090,-5502,393,-213,-116,-223,-33,8,424,-134
507,2,2022-09-30T20:28:16.769444,2461096,-5505,390,-210,-92,-259,-51,8,424,-134
508,2,2022-09-30T20:28:16.780330,2461108,-5505,390,-210,-92,-259,-51,8,424,-134
509,2,2022-09-30T20:28:16.787612,2461115,-5505,390,-210,-92,-259,-51,8,424,-134
510,2,2022-09-30T20:28:16.793265,2461121,-5502,395,-208,-63,-289,-59,17,425,-133
511,2,2022-09-30T20:28:16.804615,2461132,-5502,395,-208,-63,-289,-59,17,425,-133
512,2,2022-09-30T20:28:16.813438,2461140,-5497,400,-207,-50,-298,-69,17,425,-133
513,2,2022-09-30T20:28:16.825045,2461153,-5497,400,-207,-50,-298,-69,17,425,-133
514,2,2022-09-30T20:28:16.832627,2461160,-5502,404,-209,-80,-286,-78,17,425,-133
515,2,2022-09-30T20:28:16.849837,2461174,-5502,404,-209,-80,-286,-78,17,425,-133
516,2,2022-09-30T20:28:16.858343,2461186,-5500,403,-209,-120,-297,-96,17,425,-133
517,2,2022-09-30T20:28:16.867482,2461195,-5500,403,-209,-120,-297,-96,17,425,-133
518,2,2022-09-30T20:28:16.875442,2461203,-5493,399,-210,-156,-282,-117,17,425,-133
519,2,2022-09-30T20:28:16.884538,2461212,-5493,399,-210,-156,-282,-117,17,425,-133
520,2,2022-09-30T20:28:16.890795,2461218,-5493,393,-204,-182,-246,-146,17,425,-133
521,2,2022-09-30T20:28:16.897212,2461223,-5493,393,-204,-182,-246,-146,17,425,-133
522,2,2022-09-30T20:28:16.903065,2461231,-5493,393,-204,-182,-246,-146,17,425,-133
523,2,2022-09-30T20:28:16.908320,2461236,-5494,387,-209,-184,-214,-160,10,430,-130
524,2,2022-09-30T20:28:16.914707,2461243,-5494,387,-209,-184,-214,-160,10,430,-130
525,2,2022-09-30T20:28:16.921676,2461249,-5494,387,-209,-184,-214,-160,10,430,-130
526,2,2022-09-30T20:28:16.926939,2461255,-5494,387,-209,-184,-214,-160,10,430,-130
527,2,2022-09-30T20:28:16.933824,2461261,-5496,386,-206,-137,-189,-136,10,430,-130
528,2,2022-09-30T20:28:16.942132,2461270,-5496,386,-206,-137,-189,-136,10,430,-130
529,2,2022-09-30T20:28:16.948040,2461276,-5496,386,-206,-137,-189,-136,10,430,-130
530,2,2022-09-30T20:28:16.957172,2461285,-5500,387,-207,-78,-195,-108,10,430,-130
531,2,2022-09-30T20:28:16.966128,2461294,-5500,387,-207,-78,-195,-108,10,430,-130
532,2,2022-09-30T20:28:16.973743,2461300,-5493,388,-208,-6,-234,-97,10,430,-130
533,2,2022-09-30T20:28:16.982783,2461310,-5493,388,-208,-6,-234,-97,10,430,-130
534,2,2022-09-30T20:28:16.988401,2461316,-5502,395,-212,-26,-221,-137,10,430,-130
535,2,2022-09-30T20:28:16.994818,2461322,-5502,395,-212,-26,-221,-137,10,430,-130
536,2,2022-09-30T20:28:17.002424,2461330,-5502,395,-212,-26,-221,-137,10,430,-130
537,2,2022-09-30T20:28:17.007515,2461335,-5502,395,-212,-26,-221,-137,10,430,-130
538,2,2022-09-30T20:28:17.013656,2461342,-5511,399,-213,-139,-208,-164,10,430,-130
539,2,2022-09-30T20:28:17.021006,2461347,-5511,399,-213,-139,-208,-164,10,430,-130
540,2,2022-09-30T20:28:17.026778,2461355,-5511,399,-213,-139,-208,-164,10,430,-130
541,2,2022-09-30T20:28:17.032241,2461360,-5512,392,-198,-224,-300,-114,14,424,-136
542,2,2022-09-30T20:28:17.040105,2461367,-5512,392,-198,-224,-300,-114,14,424,-136
543,2,2022-09-30T20:28:17.046500,2461374,-5512,392,-198,-224,-300,-114,14,424,-136
544,2,2022-09-30T20:28:17.053357,2461381,-5488,387,-196,-172,-411,-19,14,424,-136
545,2,2022-09-30T20:28:17.059826,2461387,-5488,387,-196,-172,-411,-19,14,424,-136
546,2,2022-09-30T20:28:17.065153,2461393,-5488,387,-196,-172,-411,-19,14,424,-136
547,2,2022-09-30T20:28:17.072041,2461400,-5471,387,-199,-99,-354,19,14,424,-136
548,2,2022-09-30T20:28:17.078886,2461407,-5471,387,-199,-99,-354,19,14,424,-136
549,2,2022-09-30T20:28:17.084620,2461413,-5471,387,-199,-99,-354,19,14,424,-136
550,2,2022-09-30T20:28:17.089709,2461418,-5477,390,-208,-37,-200,49,14,424,-136
551,2,2022-09-30T20:28:17.095364,2461423,-5477,390,-208,-37,-200,49,14,424,-136
552,2,2022-09-30T20:28:17.103860,2461431,-5477,390,-208,-37,-200,49,14,424,-136
553,2,2022-09-30T20:28:17.110441,2461438,-5491,403,-206,13,-89,44,14,424,-136
554,2,2022-09-30T20:28:17.116800,2461445,-5491,403,-206,13,-89,44,14,424,-136
555,2,2022-09-30T20:28:17.122440,2461450,-5491,403,-206,13,-89,44,14,424,-136
556,2,2022-09-30T20:28:17.127650,2461456,-5491,403,-206,13,-89,44,14,424,-136
557,2,2022-09-30T20:28:17.133101,2461461,-5505,411,-202,-22,-55,1,14,424,-136
558,2,2022-09-30T20:28:17.140025,2461467,-5505,411,-202,-22,-55,1,14,424,-136
559,2,2022-09-30T20:28:17.145879,2461473,-5505,411,-202,-22,-55,1,14,424,-136
560,2,2022-09-30T20:28:17.153096,2461481,-5510,417,-208,-150,-82,-66,17,419,-129
561,2,2022-09-30T20:28:17.159667,2461488,-5510,417,-208,-150,-82,-66,17,419,-129
562,2,2022-09-30T20:28:17.165042,2461493,-5510,417,-208,-150,-82,-66,17,419,-129
563,2,2022-09-30T20:28:17.171730,2461499,-5510,410,-206,-276,-142,-107,17,419,-129
564,2,2022-09-30T20:28:17.179232,2461507,-5510,410,-206,-276,-142,-107,17,419,-129
565,2,2022-09-30T20:28:17.184762,2461512,-5510,410,-206,-276,-142,-107,17,419,-129
566,2,2022-09-30T20:28:17.191427,2461519,-5507,400,-215,-347,-219,-89,17,419,-129
567,2,2022-09-30T20:28:17.197646,2461526,-5507,400,-215,-347,-219,-89,17,419,-129
568,2,2022-09-30T20:28:17.202993,2461531,-5507,400,-215,-347,-219,-89,17,419,-129
569,2,2022-09-30T20:28:17.208440,2461536,-5497,388,-218,-343,-262,-62,17,419,-129
570,2,2022-09-30T20:28:17.215870,2461544,-5497,388,-218,-343,-262,-62,17,419,-129
571,2,2022-09-30T20:28:17.224975,2461553,-5497,388,-218,-343,-262,-62,17,419,-129
572,2,2022-09-30T20:28:17.230624,2461558,-5494,381,-217,-263,-244,-86,17,419,-129
573,2,2022-09-30T20:28:17.237675,2461565,-5494,381,-217,-263,-244,-86,17,419,-129
574,2,2022-09-30T20:28:17.242904,2461571,-5494,381,-217,-263,-244,-86,17,419,-129
575,2,2022-09-30T20:28:17.249071,2461576,-5496,387,-217,-176,-178,-136,17,419,-129
576,2,2022-09-30T20:28:17.254601,2461582,-5496,387,-217,-176,-178,-136,17,419,-129
577,2,2022-09-30T20:28:17.261450,2461589,-5496,387,-217,-176,-178,-136,17,419,-129
578,2,2022-09-30T20:28:17.266622,2461595,-5496,387,-217,-176,-178,-136,17,419,-129
579,2,2022-09-30T20:28:17.275064,2461602,-5505,389,-213,-109,-157,-179,17,433,-141
580,2,2022-09-30T20:28:17.284278,2461613,-5505,389,-213,-109,-157,-179,17,433,-141
581,2,2022-09-30T20:28:17.293938,2461622,-5507,392,-205,-54,-233,-207,17,433,-141
582,2,2022-09-30T20:28:17.303103,2461631,-5507,392,-205,-54,-233,-207,17,433,-141
583,2,2022-09-30T20:28:17.309147,2461637,-5502,395,-215,-51,-269,-233,17,433,-141
584,2,2022-09-30T20:28:17.318408,2461645,-5502,395,-215,-51,-269,-233,17,433,-141
585,2,2022-09-30T20:28:17.325295,2461652,-5502,395,-215,-51,-269,-233,17,433,-141
586,2,2022-09-30T20:28:17.332508,2461661,-5498,396,-208,-93,-277,-235,17,433,-141
587,2,2022-09-30T20:28:17.341370,2461669,-5498,396,-208,-93,-277,-235,17,433,-141
588,2,2022-09-30T20:28:17.347717,2461675,-5498,396,-208,-93,-277,-235,17,433,-141
589,2,2022-09-30T20:28:17.355188,2461683,-5497,394,-211,-126,-283,-203,17,433,-141
590,2,2022-09-30T20:28:17.360209,2461688,-5497,394,-211,-126,-283,-203,17,433,-141
591,2,2022-09-30T20:28:17.365874,2461693,-5497,394,-211,-126,-283,-203,17,433,-141
592,2,2022-09-30T20:28:17.372652,2461701,-5493,393,-207,-148,-275,-146,17,433,-141
593,2,2022-09-30T20:28:17.379611,2461708,-5493,393,-207,-148,-275,-146,17,433,-141
594,2,2022-09-30T20:28:17.385347,2461713,-5493,393,-207,-148,-275,-146,17,433,-141
595,2,2022-09-30T20:28:17.392471,2461720,-5498,391,-203,-152,-277,-114,17,433,-141
596,2,2022-09-30T20:28:17.401344,2461727,-5498,391,-203,-152,-277,-114,17,433,-141
597,2,2022-09-30T20:28:17.406826,2461735,-5498,391,-203,-152,-277,-114,17,433,-141
598,2,2022-09-30T20:28:17.412959,2461741,-5499,387,-201,-157,-286,-109,19,419,-137
599,2,2022-09-30T20:28:17.419488,2461747,-5499,387,-201,-157,-286,-109,19,419,-137
600,2,2022-09-30T20:28:17.428523,2461756,-5499,387,-201,-157,-286,-109,19,419,-137
601,2,2022-09-30T20:28:17.434936,2461763,-5496,383,-202,-135,-307,-117,19,419,-137
602,2,2022-09-30T20:28:17.443816,2461771,-5496,383,-202,-135,-307,-117,19,419,-137
603,2,2022-09-30T20:28:17.451072,2461779,-5494,383,-201,-94,-298,-114,19,419,-137
604,2,2022-09-30T20:28:17.457703,2461786,-5494,383,-201,-94,-298,-114,19,419,-137
605,2,2022-09-30T20:28:17.463510,2461792,-5494,383,-201,-94,-298,-114,19,419,-137
606,2,2022-09-30T20:28:17.470236,2461798,-5491,387,-206,-55,-275,-97,19,419,-137
607,2,2022-09-30T20:28:17.476099,2461804,-5491,387,-206,-55,-275,-97,19,419,-137
608,2,2022-09-30T20:28:17.482614,2461810,-5491,387,-206,-55,-275,-97,19,419,-137
609,2,2022-09-30T20:28:17.487547,2461815,-5491,387,-206,-55,-275,-97,19,419,-137
610,2,2022-09-30T20:28:17.494286,2461821,-5491,395,-201,-31,-259,-77,19,419,-137
611,2,2022-09-30T20:28:17.505102,2461833,-5491,395,-201,-31,-259,-77,19,419,-137
612,2,2022-09-30T20:28:17.511829,2461840,-5495,400,-203,-44,-215,-64,19,419,-137
613,2,2022-09-30T20:28:17.518635,2461846,-5495,400,-203,-44,-215,-64,19,419,-137
614,2,2022-09-30T20:28:17.524761,2461852,-5495,400,-203,-44,-215,-64,19,419,-137
615,2,2022-09-30T20:28:17.530202,2461858,-5494,402,-198,-96,-186,-55,8,428,-134
616,2,2022-09-30T20:28:17.538364,2461867,-5494,402,-198,-96,-186,-55,8,428,-134
617,2,2022-09-30T20:28:17.545166,2461873,-5494,402,-198,-96,-186,-55,8,428,-134
618,2,2022-09-30T20:28:17.551998,2461880,-5500,402,-200,-155,-170,-63,8,428,-134
619,2,2022-09-30T20:28:17.560284,2461888,-5500,402,-200,-155,-170,-63,8,428,-134
620,2,2022-09-30T20:28:17.565927,2461894,-5500,402,-200,-155,-170,-63,8,428,-134
621,2,2022-09-30T20:28:17.573817,2461901,-5501,396,-203,-210,-181,-89,8,428,-134
622,2,2022-09-30T20:28:17.580777,2461908,-5501,396,-203,-210,-181,-89,8,428,-134
623,2,2022-09-30T20:28:17.586140,2461914,-5501,396,-203,-210,-181,-89,8,428,-134
624,2,2022-09-30T20:28:17.592299,2461921,-5501,391,-204,-227,-202,-120,8,428,-134
625,2,2022-09-30T20:28:17.602000,2461930,-5501,391,-204,-227,-202,-120,8,428,-134
626,2,2022-09-30T20:28:17.607433,2461935,-5501,391,-204,-227,-202,-120,8,428,-134
627,2,2022-09-30T20:28:17.613684,2461941,-5499,386,-207,-213,-218,-151,8,428,-134
628,2,2022-09-30T20:28:17.621488,2461948,-5499,386,-207,-213,-218,-151,8,428,-134
629,2,2022-09-30T20:28:17.627299,2461956,-5499,386,-207,-213,-218,-151,8,428,-134
630,2,2022-09-30T20:28:17.634278,2461962,-5499,385,-208,-173,-224,-139,8,428,-134
631,2,2022-09-30T20:28:17.641513,2461969,-5499,385,-208,-173,-224,-139,8,428,-134
632,2,2022-09-30T20:28:17.647764,2461975,-5499,385,-208,-173,-224,-139,8,428,-134
633,2,2022-09-30T20:28:17.654487,2461982,-5494,386,-210,-123,-218,-122,18,430,-128
634,2,2022-09-30T20:28:17.661327,2461988,-5494,386,-210,-123,-218,-122,18,430,-128
635,2,2022-09-30T20:28:17.667926,2461996,-5494,386,-210,-123,-218,-122,18,430,-128
636,2,2022-09-30T20:28:17.676618,2462004,-5493,388,-206,-95,-214,-96,18,430,-128
637,2,2022-09-30T20:28:17.683137,2462011,-5493,388,-206,-95,-214,-96,18,430,-128
638,2,2022-09-30T20:28:17.688829,2462017,-5498,388,-204,-84,-208,-79,18,430,-128
639,2,2022-09-30T20:28:17.697553,2462025,-5498,388,-204,-84,-208,-79,18,430,-128
640,2,2022-09-30T20:28:17.706723,2462034,-5498,388,-204,-84,-208,-79,18,430,-128
641,2,2022-09-30T20:28:17.712439,2462041,-5502,388,-205,-83,-217,-89,18,430,-128
642,2,2022-09-30T20:28:17.720404,2462048,-5502,388,-205,-83,-217,-89,18,430,-128
643,2,2022-09-30T20:28:17.726513,2462055,-5502,388,-205,-83,-217,-89,18,430,-128
644,2,2022-09-30T20:28:17.733182,2462061,-5500,392,-210,-93,-231,-102,18,430,-128
645,2,2022-09-30T20:28:17.740155,2462068,-5500,392,-210,-93,-231,-102,18,430,-128
646,2,2022-09-30T20:28:17.745778,2462073,-5500,392,-210,-93,-231,-102,18,430,-128
647,2,2022-09-30T20:28:17.751321,2462080,-5496,392,-204,-99,-236,-111,18,430,-128
648,2,2022-09-30T20:28:17.756757,2462085,-5496,392,-204,-99,-236,-111,18,430,-128
649,2,2022-09-30T20:28:17.762149,2462090,-5496,392,-204,-99,-236,-111,18,430,-128
650,2,2022-09-30T20:28:17.767527,2462096,-5496,392,-204,-99,-236,-111,18,430,-128
651,2,2022-09-30T20:28:17.775222,2462103,-5494,391,-203,-110,-253,-92,9,425,-139
652,2,2022-09-30T20:28:17.781935,2462109,-5494,391,-203,-110,-253,-92,9,425,-139
653,2,2022-09-30T20:28:17.787440,2462115,-5494,391,-203,-110,-253,-92,9,425,-139
654,2,2022-09-30T20:28:17.793050,2462120,-5491,395,-204,-112,-233,-79,9,425,-139
655,2,2022-09-30T20:28:17.803094,2462131,-5491,395,-204,-112,-233,-79,9,425,-139
656,2,2022-09-30T20:28:17.808707,2462137,-5491,395,-204,-112,-233,-79,9,425,-139
657,2,2022-09-30T20:28:17.815262,2462143,-5492,395,-203,-136,-201,-70,9,425,-139
658,2,2022-09-30T20:28:17.822494,2462149,-5492,395,-203,-136,-201,-70,9,425,-139
659,2,2022-09-30T20:28:17.828046,2462156,-5492,395,-203,-136,-201,-70,9,425,-139
660,2,2022-09-30T20:28:17.834593,2462162,-5495,390,-201,-148,-187,-58,9,425,-139
661,2,2022-09-30T20:28:17.844753,2462173,-5495,390,-201,-148,-187,-58,9,425,-139
662,2,2022-09-30T20:28:17.852453,2462180,-5497,392,-204,-146,-185,-48,9,425,-139
663,2,2022-09-30T20:28:17.861182,2462188,-5497,392,-204,-146,-185,-48,9,425,-139
664,2,2022-09-30T20:28:17.867247,2462195,-5497,392,-204,-146,-185,-48,9,425,-139
665,2,2022-09-30T20:28:17.875011,2462202,-5497,392,-204,-146,-185,-48,9,425,-139
666,2,2022-09-30T20:28:17.882497,2462211,-5497,392,-204,-146,-185,-48,9,425,-139
667,2,2022-09-30T20:28:17.888824,2462217,-5497,392,-204,-146,-185,-48,9,425,-139
668,2,2022-09-30T20:28:17.896389,2462224,-5496,392,-204,-157,-189,-30,10,426,-132
669,2,2022-09-30T20:28:17.903823,2462232,-5496,392,-204,-157,-189,-30,10,426,-132
670,2,2022-09-30T20:28:17.909396,2462237,-5505,396,-202,-196,-154,-51,10,426,-132
671,2,2022-09-30T20:28:17.917125,2462245,-5505,396,-202,-196,-154,-51,10,426,-132
672,2,2022-09-30T20:28:17.925469,2462254,-5505,396,-202,-196,-154,-51,10,426,-132
673,2,2022-09-30T20:28:17.932207,2462260,-5510,396,-200,-256,-147,-45,10,426,-132
674,2,2022-09-30T20:28:17.939646,2462267,-5510,396,-200,-256,-147,-45,10,426,-132
675,2,2022-09-30T20:28:17.945464,2462273,-5510,396,-200,-256,-147,-45,10,426,-132
676,2,2022-09-30T20:28:17.954045,2462281,-5506,390,-203,-220,-254,16,10,426,-132
677,2,2022-09-30T20:28:17.961911,2462289,-5506,390,-203,-220,-254,16,10,426,-132
678,2,2022-09-30T20:28:17.968172,2462296,-5506,390,-203,-220,-254,16,10,426,-132
679,2,2022-09-30T20:28:17.976885,2462305,-5489,389,-203,-131,-332,41,10,426,-132
680,2,2022-09-30T20:28:17.984799,2462312,-5489,389,-203,-131,-332,41,10,426,-132
681,2,2022-09-30T20:28:17.991580,2462319,-5483,392,-207,-80,-237,-12,10,426,-132
682,2,2022-09-30T20:28:17.998143,2462325,-5483,392,-207,-80,-237,-12,10,426,-132
683,2,2022-09-30T20:28:18.004358,2462332,-5483,392,-207,-80,-237,-12,10,426,-132
684,2,2022-09-30T20:28:18.011881,2462340,-5490,398,-204,-70,-124,-57,10,426,-132
685,2,2022-09-30T20:28:18.019987,2462347,-5490,398,-204,-70,-124,-57,10,426,-132
686,2,2022-09-30T20:28:18.027686,2462355,-5490,398,-204,-70,-124,-57,10,426,-132
687,2,2022-09-30T20:28:18.035188,2462363,-5501,407,-201,-112,-83,-92,18,428,-132
688,2,2022-09-30T20:28:18.043610,2462371,-5501,407,-201,-112,-83,-92,18,428,-132
689,2,2022-09-30T20:28:18.051583,2462380,-5507,406,-202,-215,-75,-114,18,428,-132
690,2,2022-09-30T20:28:18.061896,2462390,-5507,406,-202,-215,-75,-114,18,428,-132
691,2,2022-09-30T20:28:18.067334,2462395,-5507,406,-202,-215,-75,-114,18,428,-132
692,2,2022-09-30T20:28:18.075230,2462403,-5505,404,-207,-289,-129,-93,18,428,-132
693,2,2022-09-30T20:28:18.082185,2462409,-5505,404,-207,-289,-129,-93,18,428,-132
694,2,2022-09-30T20:28:18.088466,2462416,-5505,404,-207,-289,-129,-93,18,428,-132
695,2,2022-09-30T20:28:18.095864,2462424,-5497,395,-208,-307,-195,-58,18,428,-132
696,2,2022-09-30T20:28:18.105650,2462434,-5497,395,-208,-307,-195,-58,18,428,-132
697,2,2022-09-30T20:28:18.112320,2462440,-5496,388,-207,-285,-222,-29,18,428,-132
698,2,2022-09-30T20:28:18.122261,2462449,-5496,388,-207,-285,-222,-29,18,428,-132
699,2,2022-09-30T20:28:18.128609,2462456,-5496,388,-207,-285,-222,-29,18,428,-132
700,2,2022-09-30T20:28:18.135677,2462464,-5489,387,-217,-234,-212,-31,18,428,-132
701,2,2022-09-30T20:28:18.143052,2462471,-5489,387,-217,-234,-212,-31,18,428,-132
702,2,2022-09-30T20:28:18.149354,2462477,-5496,393,-210,-174,-161,-54,18,428,-132
703,2,2022-09-30T20:28:18.158300,2462486,-5496,393,-210,-174,-161,-54,10,422,-134
704,2,2022-09-30T20:28:18.165826,2462493,-5496,393,-210,-174,-161,-54,10,422,-134
705,2,2022-09-30T20:28:18.172124,2462499,-5507,396,-206,-153,-109,-71,10,422,-134
706,2,2022-09-30T20:28:18.180490,2462509,-5507,396,-206,-153,-109,-71,10,422,-134
707,2,2022-09-30T20:28:18.187570,2462516,-5507,396,-206,-153,-109,-71,10,422,-134
708,2,2022-09-30T20:28:18.195151,2462523,-5504,398,-209,-126,-188,-62,10,422,-134
709,2,2022-09-30T20:28:18.202947,2462531,-5504,398,-209,-126,-188,-62,10,422,-134
710,2,2022-09-30T20:28:18.208863,2462536,-5504,398,-209,-126,-188,-62,10,422,-134
711,2,2022-09-30T20:28:18.214034,2462542,-5498,398,-209,-108,-228,-81,10,422,-134
712,2,2022-09-30T20:28:18.224652,2462550,-5498,398,-209,-108,-228,-81,10,422,-134
713,2,2022-09-30T20:28:18.231851,2462560,-5493,398,-212,-130,-202,-91,10,422,-134
714,2,2022-09-30T20:28:18.240342,2462567,-5493,398,-212,-130,-202,-91,10,422,-134
715,2,2022-09-30T20:28:18.253417,2462581,-5503,398,-210,-158,-188,-96,10,422,-134
716,2,2022-09-30T20:28:18.265982,2462594,-5503,398,-210,-158,-188,-96,10,422,-134
717,2,2022-09-30T20:28:18.273811,2462601,-5508,397,-205,-167,-199,-96,18,424,-140
718,2,2022-09-30T20:28:18.283038,2462611,-5508,397,-205,-167,-199,-96,18,424,-140
719,2,2022-09-30T20:28:18.288938,2462616,-5508,397,-205,-167,-199,-96,18,424,-140
720,2,2022-09-30T20:28:18.296565,2462623,-5509,394,-202,-171,-237,-84,18,424,-140
721,2,2022-09-30T20:28:18.306212,2462633,-5509,394,-202,-171,-237,-84,18,424,-140
722,2,2022-09-30T20:28:18.311452,2462640,-5502,391,-209,-150,-310,-90,18,424,-140
723,2,2022-09-30T20:28:18.317798,2462646,-5502,391,-209,-150,-310,-90,18,424,-140
724,2,2022-09-30T20:28:18.328139,2462656,-5502,391,-209,-150,-310,-90,18,424,-140
725,2,2022-09-30T20:28:18.335279,2462663,-5491,394,-209,-129,-318,-109,18,424,-140
726,2,2022-09-30T20:28:18.344354,2462672,-5491,394,-209,-129,-318,-109,18,424,-140
727,2,2022-09-30T20:28:18.353265,2462681,-5491,394,-203,-107,-300,-124,18,424,-140
728,2,2022-09-30T20:28:18.362110,2462690,-5491,394,-203,-107,-300,-124,18,424,-140
729,2,2022-09-30T20:28:18.368334,2462696,-5491,394,-203,-107,-300,-124,18,424,-140
730,2,2022-09-30T20:28:18.376428,2462704,-5492,395,-198,-78,-257,-129,18,424,-140
731,2,2022-09-30T20:28:18.383802,2462711,-5492,395,-198,-78,-257,-129,18,424,-140
732,2,2022-09-30T20:28:18.388702,2462717,-5492,395,-198,-78,-257,-129,18,424,-140
733,2,2022-09-30T20:28:18.395550,2462723,-5491,394,-203,-48,-220,-113,21,429,-131
734,2,2022-09-30T20:28:18.404958,2462733,-5491,394,-203,-48,-220,-113,21,429,-131
735,2,2022-09-30T20:28:18.411483,2462739,-5493,399,-199,-60,-195,-105,21,429,-131
736,2,2022-09-30T20:28:18.416957,2462745,-5493,399,-199,-60,-195,-105,21,429,-131
737,2,2022-09-30T20:28:18.426921,2462754,-5493,399,-199,-60,-195,-105,21,429,-131
738,2,2022-09-30T20:28:18.432012,2462759,-5496,402,-205,-110,-173,-111,21,429,-131
739,2,2022-09-30T20:28:18.438986,2462767,-5496,402,-205,-110,-173,-111,21,429,-131
740,2,2022-09-30T20:28:18.447319,2462773,-5496,402,-205,-110,-173,-111,21,429,-131
741,2,2022-09-30T20:28:18.457650,2462785,-5499,399,-206,-180,-167,-112,21,429,-131
742,2,2022-09-30T20:28:18.467669,2462795,-5499,399,-206,-180,-167,-112,21,429,-131
743,2,2022-09-30T20:28:18.481330,2462809,-5499,397,-207,-223,-184,-90,21,429,-131
744,2,2022-09-30T20:28:18.487031,2462815,-5499,397,-207,-223,-184,-90,21,429,-131
745,2,2022-09-30T20:28:18.493742,2462822,-5496,392,-205,-226,-186,-80,21,429,-131
746,2,2022-09-30T20:28:18.503601,2462831,-5496,392,-205,-226,-186,-80,21,429,-131
747,2,2022-09-30T20:28:18.508808,2462837,-5496,392,-205,-226,-186,-80,21,429,-131
748,2,2022-09-30T20:28:18.515511,2462843,-5495,393,-206,-220,-182,-78,16,424,-138
749,2,2022-09-30T20:28:18.529399,2462857,-5495,393,-206,-220,-182,-78,16,424,-138
750,2,2022-09-30T20:28:18.539711,2462868,-5497,391,-204,-206,-156,-75,16,424,-138
751,2,2022-09-30T20:28:18.549566,2462876,-5497,391,-204,-206,-156,-75,16,424,-138
752,2,2022-09-30T20:28:18.557660,2462885,-5495,392,-208,-195,-149,-72,16,424,-138
753,2,2022-09-30T20:28:18.566570,2462895,-5495,392,-208,-195,-149,-72,16,424,-138
754,2,2022-09-30T20:28:18.577688,2462906,-5496,394,-212,-184,-167,-67,16,424,-138
755,2,2022-09-30T20:28:18.585503,2462913,-5496,394,-212,-184,-167,-67,16,424,-138
756,2,2022-09-30T20:28:18.595983,2462922,-5499,386,-215,-176,-164,-55,16,424,-138
757,2,2022-09-30T20:28:18.606964,2462935,-5499,386,-215,-176,-164,-55,16,424,-138
758,2,2022-09-30T20:28:18.613974,2462942,-5498,388,-210,-154,-187,-46,16,424,-138
759,2,2022-09-30T20:28:18.622713,2462950,-5498,388,-210,-154,-187,-46,16,424,-138
760,2,2022-09-30T20:28:18.628489,2462956,-5498,388,-210,-154,-187,-46,16,424,-138
761,2,2022-09-30T20:28:18.633819,2462962,-5498,392,-216,-127,-211,-36,16,424,-138
762,2,2022-09-30T20:28:18.640962,2462968,-5498,392,-216,-127,-211,-36,16,424,-138
763,2,2022-09-30T20:28:18.647933,2462974,-5498,392,-216,-127,-211,-36,16,424,-138
764,2,2022-09-30T20:28:18.655277,2462983,-5502,396,-205,-106,-223,-41,18,424,-136
765,2,2022-09-30T20:28:18.663755,2462990,-5502,396,-205,-106,-223,-41,18,424,-136
766,2,2022-09-30T20:28:18.669913,2462998,-5496,401,-209,-90,-226,-65,18,424,-136
767,2,2022-09-30T20:28:18.681387,2463009,-5496,401,-209,-90,-226,-65,18,424,-136
768,2,2022-09-30T20:28:18.688023,2463015,-5496,401,-209,-90,-226,-65,18,424,-136
769,2,2022-09-30T20:28:18.694629,2463023,-5497,399,-213,-87,-215,-85,18,424,-136
770,2,2022-09-30T20:28:18.703570,2463032,-5497,399,-213,-87,-215,-85,18,424,-136
771,2,2022-09-30T20:28:18.709012,2463037,-5497,399,-213,-87,-215,-85,18,424,-136
772,2,2022-09-30T20:28:18.714290,2463042,-5496,402,-210,-100,-209,-85,18,424,-136
773,2,2022-09-30T20:28:18.722826,2463050,-5496,402,-210,-100,-209,-85,18,424,-136
774,2,2022-09-30T20:28:18.728691,2463056,-5496,402,-210,-100,-209,-85,18,424,-136
775,2,2022-09-30T20:28:18.734714,2463063,-5502,400,-204,-115,-213,-103,18,424,-136
776,2,2022-09-30T20:28:18.742118,2463070,-5502,400,-204,-115,-213,-103,18,424,-136
777,2,2022-09-30T20:28:18.747537,2463075,-5502,400,-204,-115,-213,-103,18,424,-136
778,2,2022-09-30T20:28:18.753007,2463081,-5489,399,-207,-134,-237,-106,18,424,-136
779,2,2022-09-30T20:28:18.760579,2463089,-5489,399,-207,-134,-237,-106,18,424,-136
780,2,2022-09-30T20:28:18.765661,2463094,-5489,399,-207,-134,-237,-106,18,424,-136
781,2,2022-09-30T20:28:18.772933,2463100,-5489,399,-201,-135,-206,-111,15,435,-135
782,2,2022-09-30T20:28:18.779847,2463108,-5489,399,-201,-135,-206,-111,15,435,-135
783,2,2022-09-30T20:28:18.785103,2463113,-5489,399,-201,-135,-206,-111,15,435,-135
784,2,2022-09-30T20:28:18.791483,2463120,-5505,395,-200,-170,-152,-110,15,435,-135
785,2,2022-09-30T20:28:18.799171,2463125,-5505,395,-200,-170,-152,-110,15,435,-135
786,2,2022-09-30T20:28:18.805966,2463134,-5505,395,-200,-170,-152,-110,15,435,-135
787,2,2022-09-30T20:28:18.813094,2463140,-5508,397,-199,-219,-155,-101,15,435,-135
788,2,2022-09-30T20:28:18.821843,2463148,-5508,397,-199,-219,-155,-101,15,435,-135
789,2,2022-09-30T20:28:18.827479,2463156,-5508,397,-199,-219,-155,-101,15,435,-135
790,2,2022-09-30T20:28:18.834486,2463162,-5499,401,-207,-193,-231,-45,15,435,-135
791,2,2022-09-30T20:28:18.840189,2463168,-5499,401,-207,-193,-231,-45,15,435,-135
792,2,2022-09-30T20:28:18.846180,2463174,-5499,401,-207,-193,-231,-45,15,435,-135
793,2,2022-09-30T20:28:18.854769,2463182,-5489,404,-206,-136,-252,6,15,435,-135
794,2,2022-09-30T20:28:18.861598,2463190,-5489,404,-206,-136,-252,6,15,435,-135
795,2,2022-09-30T20:28:18.866937,2463195,-5489,404,-206,-136,-252,6,15,435,-135
796,2,2022-09-30T20:28:18.873737,2463201,-5485,404,-206,-136,-164,-9,15,435,-135
797,2,2022-09-30T20:28:18.880476,2463208,-5485,404,-206,-136,-164,-9,15,435,-135
798,2,2022-09-30T20:28:18.885459,2463214,-5485,404,-206,-136,-164,-9,15,435,-135
799,2,2022-09-30T20:28:18.891538,2463220,-5497,409,-206,-165,-79,-53,12,430,-136
800,2,2022-09-30T20:28:18.898116,2463226,-5497,409,-206,-165,-79,-53,12,430,-136
801,2,2022-09-30T20:28:18.903287,2463232,-5497,409,-206,-165,-79,-53,12,430,-136
802,2,2022-09-30T20:28:18.908435,2463237,-5497,409,-206,-165,-79,-53,12,430,-136
803,2,2022-09-30T20:28:18.914866,2463243,-5505,409,-208,-200,-51,-86,12,430,-136
804,2,2022-09-30T20:28:18.922767,2463251,-5505,409,-208,-200,-51,-86,12,430,-136
805,2,2022-09-30T20:28:18.928799,2463257,-5505,409,-208,-200,-51,-86,12,430,-136
806,2,2022-09-30T20:28:18.934024,2463262,-5505,405,-214,-234,-78,-136,12,430,-136
807,2,2022-09-30T20:28:18.941128,2463268,-5505,405,-214,-234,-78,-136,12,430,-136
808,2,2022-09-30T20:28:18.946583,2463275,-5505,405,-214,-234,-78,-136,12,430,-136
809,2,2022-09-30T20:28:18.954172,2463283,-5512,401,-218,-284,-102,-207,12,430,-136
810,2,2022-09-30T20:28:18.960861,2463289,-5512,401,-218,-284,-102,-207,12,430,-136
811,2,2022-09-30T20:28:18.965917,2463294,-5512,401,-218,-284,-102,-207,12,430,-136
812,2,2022-09-30T20:28:18.972667,2463300,-5507,402,-219,-303,-146,-235,12,430,-136
813,2,2022-09-30T20:28:18.978230,2463306,-5507,402,-219,-303,-146,-235,12,430,-136
814,2,2022-09-30T20:28:18.984700,2463312,-5507,402,-219,-303,-146,-235,12,430,-136
815,2,2022-09-30T20:28:18.991086,2463320,-5504,392,-219,-278,-183,-223,12,430,-136
816,2,2022-09-30T20:28:18.997054,2463325,-5504,392,-219,-278,-183,-223,12,430,-136
817,2,2022-09-30T20:28:19.004908,2463333,-5504,392,-219,-278,-183,-223,12,430,-136
818,2,2022-09-30T20:28:19.010302,2463338,-5500,389,-211,-239,-233,-237,10,426,-136
819,2,2022-09-30T20:28:19.015906,2463344,-5500,389,-211,-239,-233,-237,10,426,-134
820,2,2022-09-30T20:28:19.023364,2463351,-5500,389,-211,-239,-233,-237,10,426,-134
821,2,2022-09-30T20:28:19.028733,2463356,-5500,389,-211,-239,-233,-237,10,426,-134
822,2,2022-09-30T20:28:19.035178,2463364,-5504,394,-212,-217,-219,-261,10,426,-134
823,2,2022-09-30T20:28:19.042629,2463371,-5504,394,-212,-217,-219,-261,10,426,-134
824,2,2022-09-30T20:28:19.050230,2463378,-5506,394,-213,-188,-228,-276,10,426,-134
825,2,2022-09-30T20:28:19.056370,2463384,-5506,394,-213,-188,-228,-276,10,426,-134
826,2,2022-09-30T20:28:19.062705,2463391,-5506,394,-213,-188,-228,-276,10,426,-134
827,2,2022-09-30T20:28:19.068314,2463396,-5506,394,-213,-188,-228,-276,10,426,-134
828,2,2022-09-30T20:28:19.076049,2463405,-5504,392,-214,-127,-290,-283,10,426,-134
829,2,2022-09-30T20:28:19.082977,2463411,-5504,392,-214,-127,-290,-283,10,426,-134
830,2,2022-09-30T20:28:19.088455,2463417,-5504,392,-214,-127,-290,-283,10,426,-134
831,2,2022-09-30T20:28:19.095260,2463423,-5504,392,-217,-107,-301,-341,10,426,-134
832,2,2022-09-30T20:28:19.104303,2463432,-5504,392,-217,-107,-301,-341,10,426,-134
833,2,2022-09-30T20:28:19.110593,2463438,-5499,390,-221,-132,-264,-443,10,426,-134
834,2,2022-09-30T20:28:19.116789,2463444,-5499,390,-221,-132,-264,-443,10,426,-134
835,2,2022-09-30T20:28:19.124092,2463452,-5499,390,-221,-132,-264,-443,10,426,-134
836,2,2022-09-30T20:28:19.129846,2463458,-5522,387,-209,-159,-325,-612,21,431,-135
837,2,2022-09-30T20:28:19.136443,2463464,-5522,387,-209,-159,-325,-612,21,431,-135
838,2,2022-09-30T20:28:19.143126,2463471,-5522,387,-209,-159,-325,-612,21,431,-135
839,2,2022-09-30T20:28:19.149304,2463477,-5522,387,-209,-159,-325,-612,21,431,-135
840,2,2022-09-30T20:28:19.155881,2463483,-5555,409,-202,-256,-517,-1215,21,431,-135
841,2,2022-09-30T20:28:19.163077,2463491,-5555,409,-202,-256,-517,-1215,21,431,-135
842,2,2022-09-30T20:28:19.168346,2463497,-5555,409,-202,-256,-517,-1215,21,431,-135
843,2,2022-09-30T20:28:19.175860,2463504,-5557,417,-211,-412,-685,-1945,21,431,-135
844,2,2022-09-30T20:28:19.182536,2463510,-5557,417,-211,-412,-685,-1945,21,431,-135
845,2,2022-09-30T20:28:19.187563,2463516,-5557,417,-211,-412,-685,-1945,21,431,-135
846,2,2022-09-30T20:28:19.194484,2463522,-5533,383,-215,-517,-755,-2541,21,431,-135
847,2,2022-09-30T20:28:19.199925,2463527,-5533,383,-215,-517,-755,-2541,21,431,-135
848,2,2022-09-30T20:28:19.205545,2463534,-5533,383,-215,-517,-755,-2541,21,431,-135
849,2,2022-09-30T20:28:19.211981,2463540,-5508,363,-205,-365,-814,-2915,21,431,-135
850,2,2022-09-30T20:28:19.217571,2463545,-5508,363,-205,-365,-814,-2915,21,431,-135
851,2,2022-09-30T20:28:19.224646,2463552,-5508,363,-205,-365,-814,-2915,21,431,-135
852,2,2022-09-30T20:28:19.232778,2463560,-5489,347,-205,-139,-833,-2977,21,431,-135
853,2,2022-09-30T20:28:19.238638,2463566,-5489,347,-205,-139,-833,-2977,21,431,-135
854,2,2022-09-30T20:28:19.246886,2463574,-5489,347,-205,-139,-833,-2977,21,431,-135
855,2,2022-09-30T20:28:19.255488,2463584,-5481,338,-196,35,-806,-2810,21,431,-135
856,2,2022-09-30T20:28:19.262507,2463590,-5481,338,-196,35,-806,-2810,21,431,-135
857,2,2022-09-30T20:28:19.268273,2463596,-5481,338,-196,35,-806,-2810,21,431,-135
858,2,2022-09-30T20:28:19.278020,2463606,-5474,335,-199,118,-758,-2522,24,428,-140
859,2,2022-09-30T20:28:19.284662,2463612,-5474,335,-199,118,-758,-2522,24,428,-140
860,2,2022-09-30T20:28:19.290809,2463620,-5490,327,-181,11,-742,-2407,24,428,-140
861,2,2022-09-30T20:28:19.297653,2463625,-5490,327,-181,11,-742,-2407,24,428,-140
862,2,2022-09-30T20:28:19.305034,2463633,-5490,327,-181,11,-742,-2407,24,428,-140
863,2,2022-09-30T20:28:19.310388,2463638,-5497,308,-180,-153,-746,-2482,24,428,-140
864,2,2022-09-30T20:28:19.315781,2463643,-5497,308,-180,-153,-746,-2482,24,428,-140
865,2,2022-09-30T20:28:19.322927,2463650,-5497,308,-180,-153,-746,-2482,24,428,-140
866,2,2022-09-30T20:28:19.328261,2463656,-5497,308,-180,-153,-746,-2482,24,428,-140
867,2,2022-09-30T20:28:19.334148,2463662,-5489,285,-182,-391,-735,-2597,24,428,-140
868,2,2022-09-30T20:28:19.341465,2463670,-5489,285,-182,-391,-735,-2597,24,428,-140
869,2,2022-09-30T20:28:19.347003,2463675,-5489,285,-182,-391,-735,-2597,24,428,-140
870,2,2022-09-30T20:28:19.354042,2463682,-5470,245,-184,-552,-737,-2636,24,428,-140
871,2,2022-09-30T20:28:19.360602,2463688,-5470,245,-184,-552,-737,-2636,24,428,-140
872,2,2022-09-30T20:28:19.365743,2463694,-5470,245,-184,-552,-737,-2636,24,428,-140
873,2,2022-09-30T20:28:19.372495,2463700,-5503,228,-173,-698,-793,-2976,24,428,-140
874,2,2022-09-30T20:28:19.377960,2463706,-5503,228,-173,-698,-793,-2976,24,428,-140
875,2,2022-09-30T20:28:19.384501,2463713,-5503,228,-173,-698,-793,-2976,24,428,-140
876,2,2022-09-30T20:28:19.389614,2463718,-5503,228,-173,-698,-793,-2976,24,428,-140
877,2,2022-09-30T20:28:19.394754,2463723,-5498,221,-169,-748,-811,-3513,38,436,-134
878,2,2022-09-30T20:28:19.400959,2463728,-5498,221,-169,-748,-811,-3513,38,436,-134
879,2,2022-09-30T20:28:19.406022,2463734,-5498,221,-169,-748,-811,-3513,38,436,-134
880,2,2022-09-30T20:28:19.412308,2463740,-5490,211,-177,-803,-749,-3812,38,436,-134
881,2,2022-09-30T20:28:19.417668,2463746,-5490,211,-177,-803,-749,-3812,38,436,-134
882,2,2022-09-30T20:28:19.424311,2463753,-5490,211,-177,-803,-749,-3812,38,436,-134
883,2,2022-09-30T20:28:19.430613,2463759,-5480,196,-177,-772,-701,-3787,38,436,-134
884,2,2022-09-30T20:28:19.436106,2463764,-5480,196,-177,-772,-701,-3787,38,436,-134
885,2,2022-09-30T20:28:19.443286,2463771,-5480,196,-177,-772,-701,-3787,38,436,-134
886,2,2022-09-30T20:28:19.449330,2463777,-5480,196,-177,-772,-701,-3787,38,436,-134
887,2,2022-09-30T20:28:19.455902,2463784,-5467,163,-173,-622,-714,-3419,38,436,-134
888,2,2022-09-30T20:28:19.462629,2463791,-5467,163,-173,-622,-714,-3419,38,436,-134
889,2,2022-09-30T20:28:19.468150,2463796,-5467,163,-173,-622,-714,-3419,38,436,-134
890,2,2022-09-30T20:28:19.475891,2463804,-5479,123,-158,-461,-805,-2972,38,436,-134
891,2,2022-09-30T20:28:19.482171,2463810,-5479,123,-158,-461,-805,-2972,38,436,-134
892,2,2022-09-30T20:28:19.487240,2463815,-5479,123,-158,-461,-805,-2972,38,436,-134
893,2,2022-09-30T20:28:19.493284,2463821,-5479,123,-158,-461,-805,-2972,38,436,-134
894,2,2022-09-30T20:28:19.501723,2463830,-5479,123,-158,-461,-805,-2972,38,436,-134
895,2,2022-09-30T20:28:19.507107,2463835,-5479,123,-158,-461,-805,-2972,38,436,-134
896,2,2022-09-30T20:28:19.513561,2463842,-5454,85,-150,-262,-806,-2380,42,440,-130
897,2,2022-09-30T20:28:19.520540,2463848,-5454,85,-150,-262,-806,-2380,42,440,-130
898,2,2022-09-30T20:28:19.525762,2463854,-5454,85,-150,-262,-806,-2380,42,440,-130
899,2,2022-09-30T20:28:19.532280,2463860,-5436,73,-153,-201,-754,-2057,42,440,-130
900,2,2022-09-30T20:28:19.538168,2463865,-5436,73,-153,-201,-754,-2057,42,440,-130
901,2,2022-09-30T20:28:19.544681,2463873,-5436,73,-153,-201,-754,-2057,42,440,-130
902,2,2022-09-30T20:28:19.550902,2463879,-5461,67,-146,-195,-782,-1919,42,440,-130
903,2,2022-09-30T20:28:19.556021,2463884,-5461,67,-146,-195,-782,-1919,42,440,-130
904,2,2022-09-30T20:28:19.563306,2463891,-5461,67,-146,-195,-782,-1919,42,440,-130
905,2,2022-09-30T20:28:19.568489,2463897,-5461,67,-146,-195,-782,-1919,42,440,-130
906,2,2022-09-30T20:28:19.578173,2463906,-5462,61,-142,-220,-789,-1981,42,440,-130
907,2,2022-09-30T20:28:19.584691,2463912,-5462,61,-142,-220,-789,-1981,42,440,-130
908,2,2022-09-30T20:28:19.590138,2463918,-5462,61,-142,-220,-789,-1981,42,440,-130
909,2,2022-09-30T20:28:19.595471,2463924,-5456,47,-132,-277,-803,-2126,42,440,-130
910,2,2022-09-30T20:28:19.600560,2463929,-5456,47,-132,-277,-803,-2126,42,440,-130
911,2,2022-09-30T20:28:19.606036,2463934,-5456,47,-132,-277,-803,-2126,42,440,-130
912,2,2022-09-30T20:28:19.611623,2463940,-5457,37,-135,-332,-797,-2266,42,440,-130
913,2,2022-09-30T20:28:19.617492,2463945,-5457,37,-135,-332,-797,-2266,42,440,-130
914,2,2022-09-30T20:28:19.624561,2463952,-5457,37,-135,-332,-797,-2266,42,440,-130
915,2,2022-09-30T20:28:19.630916,2463960,-5455,11,-116,-387,-823,-2536,60,438,-120
916,2,2022-09-30T20:28:19.636231,2463964,-5455,11,-116,-387,-823,-2536,60,438,-120
917,2,2022-09-30T20:28:19.642727,2463971,-5455,11,-116,-387,-823,-2536,60,438,-120
918,2,2022-09-30T20:28:19.648525,2463976,-5455,11,-116,-387,-823,-2536,60,438,-120
919,2,2022-09-30T20:28:19.655294,2463983,-5466,39,-127,-515,-831,-3335,60,438,-120
920,2,2022-09-30T20:28:19.661812,2463990,-5466,39,-127,-515,-831,-3335,60,438,-120
921,2,2022-09-30T20:28:19.667354,2463995,-5466,39,-127,-515,-831,-3335,60,438,-120
922,2,2022-09-30T20:28:19.675099,2464003,-5475,46,-134,-633,-721,-3989,60,438,-120
923,2,2022-09-30T20:28:19.682507,2464010,-5475,46,-134,-633,-721,-3989,60,438,-120
924,2,2022-09-30T20:28:19.687761,2464016,-5475,46,-134,-633,-721,-3989,60,438,-120
925,2,2022-09-30T20:28:19.694028,2464022,-5470,23,-127,-759,-594,-4159,60,438,-120
926,2,2022-09-30T20:28:19.704075,2464032,-5470,23,-127,-759,-594,-4159,60,438,-120
927,2,2022-09-30T20:28:19.709620,2464037,-5470,23,-127,-759,-594,-4159,60,438,-120
928,2,2022-09-30T20:28:19.716363,2464045,-5449,-4,-124,-782,-618,-3943,60,438,-120
929,2,2022-09-30T20:28:19.724052,2464051,-5449,-4,-124,-782,-618,-3943,60,438,-120
930,2,2022-09-30T20:28:19.729558,2464058,-5449,-4,-124,-782,-618,-3943,60,438,-120
931,2,2022-09-30T20:28:19.735384,2464064,-5429,-31,-126,-634,-779,-3421,60,438,-120
932,2,2022-09-30T20:28:19.741746,2464070,-5429,-31,-126,-634,-779,-3421,60,438,-120
933,2,2022-09-30T20:28:21.587089,2464075,-5429,-31,-126,-634,-779,-3421,60,438,-120
934,2,2022-09-30T20:28:21.595512,2465923,-5466,41,-144,-311,-135,-101,54,438,-122
935,2,2022-09-30T20:28:21.605302,2465933,-5466,41,-144,-311,-135,-101,54,438,-122
936,2,2022-09-30T20:28:21.613605,2465942,-5466,36,-140,-332,-177,-44,55,437,-127
937,2,2022-09-30T20:28:21.624213,2465952,-5466,36,-140,-332,-177,-44,55,437,-127
938,2,2022-09-30T20:28:21.630120,2465957,-5466,36,-140,-332,-177,-44,55,437,-127
939,2,2022-09-30T20:28:21.637518,2465966,-5450,30,-146,-295,-240,-3,55,437,-127
940,2,2022-09-30T20:28:21.646391,2465973,-5450,30,-146,-295,-240,-3,55,437,-127
941,2,2022-09-30T20:28:21.652251,2465980,-5450,30,-146,-295,-240,-3,55,437,-127
942,2,2022-09-30T20:28:21.659111,2465987,-5455,32,-148,-262,-203,-26,55,437,-127
943,2,2022-09-30T20:28:21.667739,2465995,-5455,32,-148,-262,-203,-26,55,437,-127
944,2,2022-09-30T20:28:21.674509,2466002,-5458,34,-141,-225,-151,-52,55,437,-127
945,2,2022-09-30T20:28:21.681024,2466009,-5458,34,-141,-225,-151,-52,55,437,-127
946,2,2022-09-30T20:28:21.687935,2466016,-5458,34,-141,-225,-151,-52,55,437,-127
947,2,2022-09-30T20:28:21.695051,2466023,-5459,35,-149,-172,-159,-50,55,437,-127
948,2,2022-09-30T20:28:21.703253,2466031,-5459,35,-149,-172,-159,-50,55,437,-127
949,2,2022-09-30T20:28:21.710313,2466038,-5459,35,-149,-172,-159,-50,55,437,-127
950,2,2022-09-30T20:28:21.717130,2466045,-5459,41,-146,-136,-178,-27,55,437,-127
951,2,2022-09-30T20:28:21.724089,2466052,-5459,41,-146,-136,-178,-27,55,437,-127
952,2,2022-09-30T20:28:21.730018,2466058,-5459,41,-146,-136,-178,-27,55,437,-127
953,2,2022-09-30T20:28:21.737079,2466065,-5458,43,-147,-125,-163,-4,55,437,-127
954,2,2022-09-30T20:28:21.744168,2466072,-5458,43,-147,-125,-163,-4,55,437,-127
955,2,2022-09-30T20:28:21.750079,2466078,-5458,43,-147,-125,-163,-4,55,437,-127
956,2,2022-09-30T20:28:21.755973,2466083,-5465,42,-140,-141,-155,-13,61,439,-123
957,2,2022-09-30T20:28:21.763181,2466091,-5465,42,-140,-141,-155,-13,61,439,-123
958,2,2022-09-30T20:28:21.769934,2466098,-5465,42,-140,-141,-155,-13,61,439,-123
959,2,2022-09-30T20:28:21.777451,2466105,-5467,41,-146,-156,-188,-30,61,439,-123
960,2,2022-09-30T20:28:21.784370,2466112,-5467,41,-146,-156,-188,-30,61,439,-123
961,2,2022-09-30T20:28:21.790616,2466118,-5467,41,-146,-156,-188,-30,61,439,-123
962,2,2022-09-30T20:28:21.798045,2466126,-5468,38,-145,-158,-242,-79,61,439,-123
963,2,2022-09-30T20:28:21.805084,2466132,-5468,38,-145,-158,-242,-79,61,439,-123
964,2,2022-09-30T20:28:21.810877,2466139,-5468,38,-145,-158,-242,-79,61,439,-123
965,2,2022-09-30T20:28:21.818774,2466147,-5464,29,-141,-140,-289,-134,61,439,-123
966,2,2022-09-30T20:28:21.828334,2466154,-5464,29,-141,-140,-289,-134,61,439,-123
967,2,2022-09-30T20:28:21.836956,2466164,-5459,30,-147,-98,-327,-155,61,439,-123
968,2,2022-09-30T20:28:21.843012,2466170,-5459,30,-147,-98,-327,-155,61,439,-123
969,2,2022-09-30T20:28:21.850180,2466178,-5459,30,-147,-98,-327,-155,61,439,-123
970,2,2022-09-30T20:28:21.857072,2466185,-5452,31,-142,-37,-335,-161,61,439,-123
971,2,2022-09-30T20:28:21.863857,2466192,-5452,31,-142,-37,-335,-161,61,439,-123
972,2,2022-09-30T20:28:21.869256,2466197,-5452,31,-142,-37,-335,-161,61,439,-123
973,2,2022-09-30T20:28:21.876614,2466204,-5448,33,-135,4,-317,-130,57,435,-125
974,2,2022-09-30T20:28:21.883555,2466211,-5448,33,-135,4,-317,-130,57,435,-125
975,2,2022-09-30T20:28:21.888983,2466216,-5448,33,-135,4,-317,-130,57,435,-125
976,2,2022-09-30T20:28:21.895516,2466224,-5451,39,-131,13,-279,-115,57,435,-125
977,2,2022-09-30T20:28:21.901442,2466230,-5451,39,-131,13,-279,-115,57,435,-125
978,2,2022-09-30T20:28:21.907694,2466236,-5451,39,-131,13,-279,-115,57,435,-125
979,2,2022-09-30T20:28:21.914113,2466242,-5450,46,-132,0,-240,-103,57,435,-125
980,2,2022-09-30T20:28:21.919767,2466247,-5450,46,-132,0,-240,-103,57,435,-125
981,2,2022-09-30T20:28:21.927424,2466255,-5450,46,-132,0,-240,-103,57,435,-125
982,2,2022-09-30T20:28:21.934089,2466263,-5452,44,-127,-60,-208,-83,57,435,-125
983,2,2022-09-30T20:28:21.939884,2466268,-5452,44,-127,-60,-208,-83,57,435,-125
984,2,2022-09-30T20:28:21.946500,2466275,-5452,44,-127,-60,-208,-83,57,435,-125
985,2,2022-09-30T20:28:21.953275,2466281,-5454,43,-132,-122,-197,-73,57,435,-125
986,2,2022-09-30T20:28:21.959478,2466288,-5454,43,-132,-122,-197,-73,57,435,-125
987,2,2022-09-30T20:28:21.965935,2466294,-5454,43,-132,-122,-197,-73,57,435,-125
988,2,2022-09-30T20:28:21.972601,2466300,-5454,43,-132,-122,-197,-73,57,435,-125
989,2,2022-09-30T20:28:21.978005,2466307,-5455,44,-131,-172,-176,-55,57,435,-125
990,2,2022-09-30T20:28:21.986620,2466315,-5455,44,-131,-172,-176,-55,57,435,-125
991,2,2022-09-30T20:28:21.993018,2466321,-5461,41,-134,-191,-163,-27,48,438,-125
992,2,2022-09-30T20:28:21.999742,2466328,-5461,41,-134,-191,-163,-27,48,438,-126
993,2,2022-09-30T20:28:22.006046,2466334,-5461,41,-134,-191,-163,-27,48,438,-126
994,2,2022-09-30T20:28:22.012700,2466341,-5458,41,-137,-187,-166,12,48,438,-126
995,2,2022-09-30T20:28:22.018404,2466347,-5458,41,-137,-187,-166,12,48,438,-126
996,2,2022-09-30T20:28:22.025922,2466354,-5458,41,-137,-187,-166,12,48,438,-126
997,2,2022-09-30T20:28:22.032754,2466361,-5458,41,-137,-187,-166,12,48,438,-126
998,2,2022-09-30T20:28:22.038284,2466366,-5456,46,-140,-181,-158,23,48,438,-126
999,2,2022-09-30T20:28:22.045703,2466373,-5456,46,-140,-181,-158,23,48,438,-126
1000,2,2022-09-30T20:28:22.051209,2466379,-5456,46,-140,-181,-158,23,48,438,-126
1001,2,2022-09-30T20:28:22.057513,2466385,-5459,44,-142,-162,-176,4,48,438,-126
1002,2,2022-09-30T20:28:22.064578,2466393,-5459,44,-142,-162,-176,4,48,438,-126
1003,2,2022-09-30T20:28:22.069741,2466398,-5459,44,-142,-162,-176,4,48,438,-126
1004,2,2022-09-30T20:28:22.076808,2466405,-5453,43,-141,-165,-175,-7,48,438,-126
1005,2,2022-09-30T20:28:22.084460,2466412,-5453,43,-141,-165,-175,-7,48,438,-126
1006,2,2022-09-30T20:28:22.090003,2466418,-5453,43,-141,-165,-175,-7,48,438,-126
1007,2,2022-09-30T20:28:22.096298,2466424,-5461,45,-137,-148,-174,15,48,438,-126
1008,2,2022-09-30T20:28:22.102899,2466430,-5461,45,-137,-148,-174,15,48,438,-126
1009,2,2022-09-30T20:28:22.108328,2466437,-5461,45,-137,-148,-174,15,48,438,-126
1010,2,2022-09-30T20:28:22.115309,2466444,-5460,48,-143,-128,-173,44,61,437,-129
1011,2,2022-09-30T20:28:22.120757,2466449,-5460,48,-143,-128,-173,44,61,437,-129
1012,2,2022-09-30T20:28:22.127121,2466455,-5460,48,-143,-128,-173,44,61,437,-129
1013,2,2022-09-30T20:28:22.132313,2466460,-5460,48,-143,-128,-173,44,61,437,-129
1014,2,2022-09-30T20:28:22.137725,2466466,-5465,46,-137,-114,-176,41,61,437,-129
1015,2,2022-09-30T20:28:22.144340,2466472,-5465,46,-137,-114,-176,41,61,437,-129
1016,2,2022-09-30T20:28:22.149691,2466478,-5465,46,-137,-114,-176,41,61,437,-129
1017,2,2022-09-30T20:28:22.156002,2466485,-5465,47,-144,-121,-195,12,61,437,-129
1018,2,2022-09-30T20:28:22.162291,2466491,-5465,47,-144,-121,-195,12,61,437,-129
1019,2,2022-09-30T20:28:22.169161,2466498,-5465,47,-144,-121,-195,12,61,437,-129
1020,2,2022-09-30T20:28:22.175857,2466504,-5460,50,-143,-126,-209,-31,61,437,-129
1021,2,2022-09-30T20:28:22.181756,2466509,-5460,50,-143,-126,-209,-31,61,437,-129
1022,2,2022-09-30T20:28:22.188454,2466516,-5460,50,-143,-126,-209,-31,61,437,-129
1023,2,2022-09-30T20:28:22.195054,2466523,-5460,49,-136,-127,-235,-42,61,437,-129
1024,2,2022-09-30T20:28:22.201079,2466529,-5460,49,-136,-127,-235,-42,61,437,-129
1025,2,2022-09-30T20:28:22.207626,2466536,-5460,49,-136,-127,-235,-42,61,437,-129
1026,2,2022-09-30T20:28:22.213915,2466542,-5459,52,-140,-116,-256,-60,61,437,-129
1027,2,2022-09-30T20:28:22.219297,2466547,-5459,52,-140,-116,-256,-60,61,437,-129
1028,2,2022-09-30T20:28:22.225947,2466554,-5459,52,-140,-116,-256,-60,61,437,-129
1029,2,2022-09-30T20:28:22.232330,2466561,-5459,52,-140,-116,-256,-60,61,437,-129
1030,2,2022-09-30T20:28:22.237449,2466566,-5454,53,-132,-115,-240,-77,50,430,-118
1031,2,2022-09-30T20:28:22.244366,2466572,-5454,53,-132,-115,-240,-77,50,430,-118
1032,2,2022-09-30T20:28:22.249709,2466578,-5454,53,-132,-115,-240,-77,50,430,-118
1033,2,2022-09-30T20:28:22.256769,2466584,-5455,53,-134,-122,-219,-89,50,430,-118
1034,2,2022-09-30T20:28:22.262388,2466590,-5455,53,-134,-122,-219,-89,50,430,-118
1035,2,2022-09-30T20:28:22.269934,2466597,-5455,53,-134,-122,-219,-89,50,430,-118
1036,2,2022-09-30T20:28:22.276511,2466605,-5458,55,-137,-131,-198,-114,50,430,-118
1037,2,2022-09-30T20:28:22.284009,2466612,-5458,55,-137,-131,-198,-114,50,430,-118
1038,2,2022-09-30T20:28:22.289309,2466618,-5458,55,-137,-131,-198,-114,50,430,-118
1039,2,2022-09-30T20:28:22.295969,2466624,-5461,55,-137,-161,-190,-141,50,430,-118
1040,2,2022-09-30T20:28:22.303248,2466631,-5461,55,-137,-161,-190,-141,50,430,-118
1041,2,2022-09-30T20:28:22.308898,2466636,-5461,55,-137,-161,-190,-141,50,430,-118
1042,2,2022-09-30T20:28:22.315686,2466642,-5453,49,-148,-210,-194,-159,50,430,-118
1043,2,2022-09-30T20:28:22.323052,2466652,-5453,49,-148,-210,-194,-159,50,430,-118
1044,2,2022-09-30T20:28:22.330920,2466659,-5453,49,-148,-210,-194,-159,50,430,-118
1045,2,2022-09-30T20:28:22.338119,2466666,-5464,42,-144,-269,-167,-161,50,430,-118
1046,2,2022-09-30T20:28:22.345147,2466673,-5464,42,-144,-269,-167,-161,50,430,-118
1047,2,2022-09-30T20:28:22.350950,2466679,-5464,42,-144,-269,-167,-161,50,430,-118
1048,2,2022-09-30T20:28:22.357560,2466685,-5472,39,-139,-294,-166,-128,50,430,-118
1049,2,2022-09-30T20:28:22.365226,2466693,-5472,39,-139,-294,-166,-128,50,430,-118
1050,2,2022-09-30T20:28:22.371663,2466700,-5472,39,-139,-294,-166,-128,50,430,-118
1051,2,2022-09-30T20:28:22.379798,2466707,-5463,32,-136,-238,-251,-42,51,437,-123
1052,2,2022-09-30T20:28:22.386887,2466715,-5463,32,-136,-238,-251,-42,51,437,-123
1053,2,2022-09-30T20:28:22.392318,2466720,-5463,32,-136,-238,-251,-42,51,437,-123
1054,2,2022-09-30T20:28:22.397881,2466725,-5448,35,-138,-107,-323,-1,51,437,-123
1055,2,2022-09-30T20:28:22.405331,2466733,-5448,35,-138,-107,-323,-1,51,437,-123
1056,2,2022-09-30T20:28:22.410971,2466739,-5448,35,-138,-107,-323,-1,51,437,-123
1057,2,2022-09-30T20:28:22.419512,2466748,-5436,42,-144,-19,-252,-47,51,437,-123
1058,2,2022-09-30T20:28:22.429080,2466755,-5436,42,-144,-19,-252,-47,51,437,-123
1059,2,2022-09-30T20:28:22.439089,2466767,-5450,54,-136,-28,-114,-108,51,437,-123
1060,2,2022-09-30T20:28:22.449149,2466775,-5450,54,-136,-28,-114,-108,51,437,-123
1061,2,2022-09-30T20:28:22.457348,2466785,-5463,59,-144,-84,-73,-138,51,437,-123
1062,2,2022-09-30T20:28:22.466973,2466795,-5463,59,-144,-84,-73,-138,51,437,-123
1063,2,2022-09-30T20:28:22.476515,2466804,-5465,59,-145,-188,-110,-125,51,437,-123
1064,2,2022-09-30T20:28:22.488427,2466816,-5465,59,-145,-188,-110,-125,51,437,-123
1065,2,2022-09-30T20:28:22.498992,2466827,-5464,50,-146,-291,-132,-94,54,442,-124
1066,2,2022-09-30T20:28:22.506339,2466834,-5464,50,-146,-291,-132,-94,54,442,-124
1067,2,2022-09-30T20:28:22.513620,2466842,-5465,42,-145,-322,-186,-52,54,442,-124
1068,2,2022-09-30T20:28:22.519755,2466848,-5465,42,-145,-322,-186,-52,54,442,-124
1069,2,2022-09-30T20:28:22.527213,2466855,-5465,42,-145,-322,-186,-52,54,442,-124
1070,2,2022-09-30T20:28:22.534638,2466863,-5467,34,-146,-260,-236,-17,54,442,-124
1071,2,2022-09-30T20:28:22.540830,2466869,-5467,34,-146,-260,-236,-17,54,442,-124
1072,2,2022-09-30T20:28:22.548609,2466877,-5467,34,-146,-260,-236,-17,54,442,-124
1073,2,2022-09-30T20:28:22.555543,2466884,-5453,33,-151,-199,-238,-41,54,442,-124
1074,2,2022-09-30T20:28:22.561025,2466889,-5453,33,-151,-199,-238,-41,54,442,-124
1075,2,2022-09-30T20:28:22.569611,2466897,-5453,33,-151,-199,-238,-41,54,442,-124
1076,2,2022-09-30T20:28:22.580744,2466909,-5456,39,-147,-160,-198,-93,54,442,-124
1077,2,2022-09-30T20:28:22.587374,2466916,-5456,39,-147,-160,-198,-93,54,442,-124
1078,2,2022-09-30T20:28:22.592501,2466921,-5456,39,-147,-160,-198,-93,54,442,-124
1079,2,2022-09-30T20:28:22.598067,2466926,-5465,43,-148,-126,-169,-109,54,442,-124
1080,2,2022-09-30T20:28:22.604836,2466933,-5465,43,-148,-126,-169,-109,54,442,-124
1081,2,2022-09-30T20:28:22.609878,2466938,-5465,43,-148,-126,-169,-109,54,442,-124
1082,2,2022-09-30T20:28:22.616199,2466945,-5462,42,-144,-96,-210,-80,49,435,-125
1083,2,2022-09-30T20:28:22.621985,2466950,-5462,42,-144,-96,-210,-80,49,435,-125
1084,2,2022-09-30T20:28:22.628521,2466957,-5462,42,-144,-96,-210,-80,49,435,-125
1085,2,2022-09-30T20:28:22.635725,2466963,-5462,42,-144,-96,-210,-80,49,435,-125
1086,2,2022-09-30T20:28:22.641741,2466970,-5462,42,-144,-96,-210,-80,49,435,-125
1087,2,2022-09-30T20:28:22.651597,2466979,-5462,42,-144,-96,-210,-80,49,435,-125
1088,2,2022-09-30T20:28:22.661414,2466990,-5455,48,-142,-79,-241,-43,49,435,-125
1089,2,2022-09-30T20:28:22.676000,2467004,-5462,50,-143,-90,-192,-45,49,435,-125
1090,2,2022-09-30T20:28:22.685798,2467014,-5462,50,-143,-90,-192,-45,49,435,-125
1091,2,2022-09-30T20:28:22.693175,2467021,-5466,52,-142,-112,-196,-82,49,435,-125
1092,2,2022-09-30T20:28:22.698604,2467026,-5466,52,-142,-112,-196,-82,49,435,-125
1093,2,2022-09-30T20:28:22.704881,2467034,-5466,52,-142,-112,-196,-82,49,435,-125
1094,2,2022-09-30T20:28:22.709870,2467039,-5466,52,-142,-112,-196,-82,49,435,-125
1095,2,2022-09-30T20:28:22.716178,2467045,-5469,51,-142,-144,-209,-97,49,435,-125
1096,2,2022-09-30T20:28:22.721611,2467050,-5469,51,-142,-144,-209,-97,49,435,-125
1097,2,2022-09-30T20:28:22.727566,2467056,-5469,51,-142,-144,-209,-97,49,435,-125
1098,2,2022-09-30T20:28:22.733905,2467062,-5467,46,-137,-163,-272,-128,59,433,-125
1099,2,2022-09-30T20:28:22.739675,2467067,-5467,46,-137,-163,-272,-128,59,433,-125
1100,2,2022-09-30T20:28:22.745931,2467075,-5467,46,-137,-163,-272,-128,59,433,-125
1101,2,2022-09-30T20:28:22.752175,2467081,-5467,46,-137,-163,-272,-128,59,433,-125
1102,2,2022-09-30T20:28:22.757144,2467086,-5461,42,-139,-149,-339,-162,59,433,-125
1103,2,2022-09-30T20:28:22.763837,2467092,-5461,42,-139,-149,-339,-162,59,433,-125
1104,2,2022-09-30T20:28:22.770358,2467098,-5461,42,-139,-149,-339,-162,59,433,-125
1105,2,2022-09-30T20:28:22.777340,2467105,-5455,36,-136,-109,-337,-168,59,433,-125
1106,2,2022-09-30T20:28:22.785093,2467112,-5455,36,-136,-109,-337,-168,59,433,-125
1107,2,2022-09-30T20:28:22.790352,2467119,-5455,36,-136,-109,-337,-168,59,433,-125
1108,2,2022-09-30T20:28:22.796787,2467125,-5445,37,-139,-68,-284,-158,59,433,-125
1109,2,2022-09-30T20:28:22.803026,2467132,-5445,37,-139,-68,-284,-158,59,433,-125
1110,2,2022-09-30T20:28:22.809283,2467138,-5445,37,-139,-68,-284,-158,59,433,-125
1111,2,2022-09-30T20:28:22.815288,2467144,-5444,40,-136,-33,-230,-134,59,433,-125
1112,2,2022-09-30T20:28:22.820770,2467149,-5444,40,-136,-33,-230,-134,59,433,-125
1113,2,2022-09-30T20:28:22.826971,2467155,-5444,40,-136,-33,-230,-134,59,433,-125
1114,2,2022-09-30T20:28:22.833055,2467162,-5444,40,-136,-33,-230,-134,59,433,-125
1115,2,2022-09-30T20:28:22.838674,2467167,-5455,40,-139,-46,-168,-120,59,433,-125
1116,2,2022-09-30T20:28:22.847102,2467175,-5455,40,-139,-46,-168,-120,59,433,-125
1117,2,2022-09-30T20:28:22.854146,2467183,-5451,48,-134,-88,-142,-95,49,443,-117
1118,2,2022-09-30T20:28:22.860260,2467189,-5451,48,-134,-88,-142,-95,49,443,-117
1119,2,2022-09-30T20:28:22.866472,2467195,-5451,48,-134,-88,-142,-95,49,443,-117
1120,2,2022-09-30T20:28:22.874426,2467202,-5451,48,-134,-88,-142,-95,49,443,-117
1121,2,2022-09-30T20:28:22.880682,2467209,-5457,47,-133,-142,-131,-55,49,443,-117
1122,2,2022-09-30T20:28:22.890003,2467218,-5457,47,-133,-142,-131,-55,49,443,-117
1123,2,2022-09-30T20:28:22.899293,2467227,-5460,46,-138,-164,-146,-11,49,443,-117
1124,2,2022-09-30T20:28:22.908241,2467235,-5460,46,-138,-164,-146,-11,49,443,-117
1125,2,2022-09-30T20:28:22.915344,2467244,-5461,46,-140,-175,-170,24,49,443,-117
1126,2,2022-09-30T20:28:22.921457,2467249,-5461,46,-140,-175,-170,24,49,443,-117
1127,2,2022-09-30T20:28:22.928923,2467257,-5461,46,-140,-175,-170,24,49,443,-117
1128,2,2022-09-30T20:28:22.935626,2467264,-5465,44,-143,-183,-167,33,49,443,-117
1129,2,2022-09-30T20:28:22.941583,2467269,-5465,44,-143,-183,-167,33,49,443,-117
1130,2,2022-09-30T20:28:22.951884,2467279,-5465,44,-143,-183,-167,33,49,443,-117
1131,2,2022-09-30T20:28:22.962145,2467289,-5462,48,-139,-165,-172,38,49,443,-117
1132,2,2022-09-30T20:28:22.972260,2467301,-5462,48,-139,-165,-172,38,49,443,-117
1133,2,2022-09-30T20:28:22.982219,2467309,-5459,48,-141,-137,-202,30,49,443,-117
1134,2,2022-09-30T20:28:22.993327,2467321,-5459,48,-141,-137,-202,30,49,443,-117
1135,2,2022-09-30T20:28:23.001815,2467330,-5460,52,-140,-138,-188,4,56,436,-130
1136,2,2022-09-30T20:28:23.012613,2467339,-5460,52,-140,-138,-188,4,56,436,-130
1137,2,2022-09-30T20:28:23.029813,2467357,-5457,52,-141,-162,-164,-23,56,436,-130
1138,2,2022-09-30T20:28:23.041781,2467369,-5462,52,-145,-176,-163,-28,56,436,-130
1139,2,2022-09-30T20:28:23.051056,2467378,-5462,52,-145,-176,-163,-28,56,436,-130
1140,2,2022-09-30T20:28:23.060150,2467388,-5460,54,-145,-188,-159,-32,56,436,-130
1141,2,2022-09-30T20:28:23.067904,2467396,-5460,54,-145,-188,-159,-32,56,436,-130
1142,2,2022-09-30T20:28:23.077776,2467406,-5463,51,-144,-198,-172,-54,56,436,-130
1143,2,2022-09-30T20:28:23.087098,2467416,-5463,51,-144,-198,-172,-54,56,436,-130
1144,2,2022-09-30T20:28:23.095734,2467424,-5462,48,-144,-208,-185,-70,56,436,-130
1145,2,2022-09-30T20:28:23.106374,2467435,-5462,48,-144,-208,-185,-70,56,436,-130
1146,2,2022-09-30T20:28:23.115300,2467443,-5461,50,-140,-204,-183,-75,57,437,-129
1147,2,2022-09-30T20:28:23.121780,2467449,-5461,50,-140,-204,-183,-75,57,437,-129
1148,2,2022-09-30T20:28:23.132901,2467462,-5461,50,-140,-204,-183,-75,57,437,-129
1149,2,2022-09-30T20:28:23.142158,2467471,-5457,50,-141,-175,-180,-65,57,437,-129
1150,2,2022-09-30T20:28:23.158675,2467486,-5456,49,-147,-167,-189,-54,57,437,-129
1151,2,2022-09-30T20:28:23.167398,2467495,-5456,49,-147,-167,-189,-54,57,437,-129
1152,2,2022-09-30T20:28:23.178109,2467505,-5455,49,-148,-150,-177,-30,57,437,-129
1153,2,2022-09-30T20:28:23.187251,2467515,-5455,49,-148,-150,-177,-30,57,437,-129
1154,2,2022-09-30T20:28:23.199691,2467525,-5464,50,-147,-137,-173,-21,57,437,-129
1155,2,2022-09-30T20:28:23.208399,2467536,-5464,50,-147,-137,-173,-21,57,437,-129
1156,2,2022-09-30T20:28:23.218261,2467546,-5462,49,-144,-133,-176,-24,57,437,-129
1157,2,2022-09-30T20:28:23.229164,2467556,-5462,49,-144,-133,-176,-24,57,437,-129
1158,2,2022-09-30T20:28:23.236544,2467565,-5454,51,-147,-148,-178,-34,58,436,-128
1159,2,2022-09-30T20:28:23.242096,2467570,-5454,51,-147,-148,-178,-34,58,436,-128
1160,2,2022-09-30T20:28:23.251815,2467577,-5454,51,-147,-148,-178,-34,58,436,-128
1161,2,2022-09-30T20:28:23.270953,2467598,-5466,45,-150,-163,-162,-50,58,436,-128
1162,2,2022-09-30T20:28:23.286681,2467614,-5478,44,-149,-177,-170,-53,58,436,-128
1163,2,2022-09-30T20:28:23.297645,2467624,-5473,44,-141,-142,-254,-3,58,436,-128
1164,2,2022-09-30T20:28:23.308140,2467636,-5473,44,-141,-142,-254,-3,58,436,-128
1165,2,2022-09-30T20:28:23.317636,2467646,-5451,52,-146,-32,-345,88,58,436,-128
1166,2,2022-09-30T20:28:23.323821,2467652,-5451,52,-146,-32,-345,88,58,436,-128
1167,2,2022-09-30T20:28:23.331528,2467659,-5451,52,-146,-32,-345,88,58,436,-128
1168,2,2022-09-30T20:28:23.338459,2467666,-5446,61,-140,36,-289,136,58,436,-128
1169,2,2022-09-30T20:28:23.355894,2467674,-5446,61,-140,36,-289,136,58,436,-128
1170,2,2022-09-30T20:28:23.361965,2467690,-5446,65,-141,27,-165,128,53,435,-125
1171,2,2022-09-30T20:28:23.371804,2467699,-5446,65,-141,27,-165,128,53,435,-125
1172,2,2022-09-30T20:28:23.378787,2467706,-5462,66,-138,-22,-95,107,53,435,-125
1173,2,2022-09-30T20:28:23.384891,2467713,-5462,66,-138,-22,-95,107,53,435,-125
1174,2,2022-09-30T20:28:23.395554,2467721,-5462,66,-138,-22,-95,107,53,435,-125
1175,2,2022-09-30T20:28:23.401900,2467729,-5467,64,-140,-108,-113,33,53,435,-125
1176,2,2022-09-30T20:28:23.411302,2467737,-5467,64,-140,-108,-113,33,53,435,-125
1177,2,2022-09-30T20:28:23.418769,2467747,-5464,61,-147,-194,-145,-26,53,435,-125
1178,2,2022-09-30T20:28:23.429416,2467758,-5464,61,-147,-194,-145,-26,53,435,-125
1179,2,2022-09-30T20:28:23.437342,2467765,-5467,54,-150,-250,-154,-36,53,435,-125
1180,2,2022-09-30T20:28:23.443617,2467771,-5467,54,-150,-250,-154,-36,53,435,-125
1181,2,2022-09-30T20:28:23.449866,2467778,-5467,54,-150,-250,-154,-36,53,435,-125
1182,2,2022-09-30T20:28:23.458247,2467786,-5464,53,-154,-245,-185,20,53,435,-125
1183,2,2022-09-30T20:28:23.466381,2467793,-5464,53,-154,-245,-185,20,53,435,-125
1184,2,2022-09-30T20:28:23.472427,2467801,-5464,53,-154,-245,-185,20,53,435,-125
1185,2,2022-09-30T20:28:23.481205,2467809,-5451,55,-154,-215,-185,88,47,441,-127
1186,2,2022-09-30T20:28:23.489289,2467817,-5451,55,-154,-215,-185,88,47,441,-127
1187,2,2022-09-30T20:28:23.497461,2467825,-5464,56,-145,-173,-172,96,47,441,-127
1188,2,2022-09-30T20:28:23.511358,2467832,-5464,56,-145,-173,-172,96,47,441,-127
1189,2,2022-09-30T20:28:23.519047,2467847,-5469,58,-151,-167,-153,43,47,441,-127
1190,2,2022-09-30T20:28:23.532872,2467860,-5469,58,-151,-167,-153,43,47,441,-127
1191,2,2022-09-30T20:28:23.540919,2467868,-5475,57,-150,-148,-182,-8,47,441,-127
1192,2,2022-09-30T20:28:23.557747,2467878,-5475,57,-150,-148,-182,-8,47,441,-127
1193,2,2022-09-30T20:28:23.564224,2467892,-5468,60,-152,-103,-249,-44,47,441,-127
1194,2,2022-09-30T20:28:23.573480,2467900,-5468,60,-152,-103,-249,-44,47,441,-127
1195,2,2022-09-30T20:28:23.583826,2467911,-5462,61,-156,-75,-234,-73,47,441,-127
1196,2,2022-09-30T20:28:23.594936,2467922,-5467,61,-155,-67,-209,-85,47,441,-127
1197,2,2022-09-30T20:28:23.604337,2467932,-5467,61,-155,-67,-209,-85,47,441,-127
1198,2,2022-09-30T20:28:23.612966,2467940,-5467,61,-155,-67,-209,-85,47,441,-127
1199,2,2022-09-30T20:28:23.620746,2467948,-5471,59,-147,-67,-240,-94,56,436,-128
1200,2,2022-09-30T20:28:23.629892,2467957,-5471,59,-147,-67,-240,-94,56,436,-128
1201,2,2022-09-30T20:28:23.635677,2467963,-5470,58,-148,-47,-312,-127,56,436,-128
1202,2,2022-09-30T20:28:23.642628,2467970,-5470,58,-148,-47,-312,-127,56,436,-128
1203,2,2022-09-30T20:28:23.650671,2467978,-5470,58,-148,-47,-312,-127,56,436,-128
1204,2,2022-09-30T20:28:23.657397,2467985,-5463,59,-146,-33,-365,-153,56,436,-128
1205,2,2022-09-30T20:28:23.663746,2467991,-5463,59,-146,-33,-365,-153,56,436,-128
1206,2,2022-09-30T20:28:23.672088,2467999,-5463,59,-146,-33,-365,-153,56,436,-128
1207,2,2022-09-30T20:28:23.680779,2468008,-5457,57,-135,-14,-393,-163,56,436,-128
1208,2,2022-09-30T20:28:23.688821,2468017,-5457,57,-135,-14,-393,-163,56,436,-128
1209,2,2022-09-30T20:28:23.699611,2468026,-5453,58,-139,15,-383,-138,56,436,-128
1210,2,2022-09-30T20:28:23.709739,2468035,-5453,58,-139,15,-383,-138,56,436,-128
1211,2,2022-09-30T20:28:23.718377,2468046,-5448,62,-145,-3,-287,-100,56,436,-128
1212,2,2022-09-30T20:28:23.729190,2468057,-5448,62,-145,-3,-287,-100,56,436,-128
1213,2,2022-09-30T20:28:23.737599,2468066,-5454,67,-134,14,-230,-46,55,439,-123
1214,2,2022-09-30T20:28:23.744320,2468072,-5454,67,-134,14,-230,-46,55,439,-123
1215,2,2022-09-30T20:28:23.756332,2468083,-5456,70,-138,-8,-191,-16,55,439,-123
1216,2,2022-09-30T20:28:23.765550,2468093,-5456,70,-138,-8,-191,-16,55,439,-123
1217,2,2022-09-30T20:28:23.773941,2468102,-5456,70,-138,-8,-191,-16,55,439,-123
1218,2,2022-09-30T20:28:23.785359,2468113,-5457,70,-138,-78,-175,-15,55,439,-123
1219,2,2022-09-30T20:28:23.792928,2468121,-5457,70,-138,-78,-175,-15,55,439,-123
1220,2,2022-09-30T20:28:23.803159,2468130,-5470,75,-133,-105,-196,6,55,439,-123
1221,2,2022-09-30T20:28:23.812481,2468141,-5470,75,-133,-105,-196,6,55,439,-123
1222,2,2022-09-30T20:28:23.820953,2468149,-5524,54,-129,-144,-224,49,55,439,-123
1223,2,2022-09-30T20:28:23.832650,2468160,-5524,54,-129,-144,-224,49,55,439,-123
1224,2,2022-09-30T20:28:23.842013,2468169,-5401,54,-163,-276,-213,-161,55,439,-123
1225,2,2022-09-30T20:28:23.856553,2468185,-5401,54,-163,-276,-213,-161,61,437,-117
1226,2,2022-09-30T20:28:23.865957,2468194,-5401,54,-163,-276,-213,-161,61,437,-117
1227,2,2022-09-30T20:28:23.876546,2468202,-5401,54,-163,-276,-213,-161,61,437,-117
1228,2,2022-09-30T20:28:23.885406,2468213,-5467,39,-141,-397,-162,-238,61,437,-117
1229,2,2022-09-30T20:28:23.893358,2468221,-5467,39,-141,-397,-162,-238,61,437,-117
1230,2,2022-09-30T20:28:23.902844,2468231,-5471,14,-129,-222,-264,-89,61,437,-117
1231,2,2022-09-30T20:28:23.912643,2468240,-5471,14,-129,-222,-264,-89,61,437,-117
1232,2,2022-09-30T20:28:23.921237,2468248,-5423,37,-162,-62,-251,-25,61,437,-117
1233,2,2022-09-30T20:28:23.935635,2468263,-5465,54,-145,2,-51,179,61,437,-117
1234,2,2022-09-30T20:28:23.945368,2468273,-5465,54,-145,2,-51,179,61,437,-117
1235,2,2022-09-30T20:28:23.956451,2468285,-5439,81,-150,119,-18,390,61,437,-117
1236,2,2022-09-30T20:28:23.967974,2468295,-5439,81,-150,119,-18,390,61,437,-117
1237,2,2022-09-30T20:28:23.981173,2468308,-5465,86,-139,174,-112,567,58,438,-122
1238,2,2022-09-30T20:28:23.986659,2468315,-5465,86,-139,174,-112,567,58,438,-122
1239,2,2022-09-30T20:28:23.995116,2468322,-5465,86,-139,174,-112,567,58,438,-122
1240,2,2022-09-30T20:28:24.001165,2468329,-5464,94,-140,217,-157,626,58,438,-122
1241,2,2022-09-30T20:28:24.011786,2468339,-5464,94,-140,217,-157,626,58,438,-122
1242,2,2022-09-30T20:28:24.019518,2468347,-5490,90,-126,263,-169,587,58,438,-122
1243,2,2022-09-30T20:28:24.035276,2468364,-5477,98,-125,346,-231,475,58,438,-122
1244,2,2022-09-30T20:28:24.045192,2468372,-5477,98,-125,346,-231,475,58,438,-122
1245,2,2022-09-30T20:28:24.057221,2468383,-5469,109,-118,460,-268,358,58,438,-122
1246,2,2022-09-30T20:28:24.066079,2468395,-5469,109,-118,460,-268,358,58,438,-122
1247,2,2022-09-30T20:28:24.076492,2468403,-5469,109,-118,460,-268,358,58,438,-122
1248,2,2022-09-30T20:28:24.087569,2468415,-5475,111,-117,555,-304,225,58,438,-122
1249,2,2022-09-30T20:28:24.097137,2468424,-5474,113,-109,653,-324,49,54,442,-128
1250,2,2022-09-30T20:28:24.109237,2468436,-5474,113,-109,653,-324,49,54,442,-128
1251,2,2022-09-30T20:28:24.120236,2468448,-5465,113,-102,685,-287,-200,54,442,-128
1252,2,2022-09-30T20:28:24.133813,2468462,-5465,113,-102,685,-287,-200,54,442,-128
1253,2,2022-09-30T20:28:24.139766,2468467,-5453,109,-106,679,-282,-441,54,442,-128
1254,2,2022-09-30T20:28:24.149879,2468478,-5453,109,-106,679,-282,-441,54,442,-128
1255,2,2022-09-30T20:28:24.157866,2468486,-5456,93,-100,695,-272,-592,54,442,-128
1256,2,2022-09-30T20:28:24.164360,2468493,-5456,93,-100,695,-272,-592,54,442,-128
1257,2,2022-09-30T20:28:24.169647,2468498,-5456,93,-100,695,-272,-592,54,442,-128
1258,2,2022-09-30T20:28:24.178198,2468504,-5446,77,-103,742,-183,-688,54,442,-128
1259,2,2022-09-30T20:28:24.186909,2468515,-5446,77,-103,742,-183,-688,54,442,-128
1260,2,2022-09-30T20:28:24.193699,2468521,-5446,77,-103,742,-183,-688,54,442,-128
1261,2,2022-09-30T20:28:24.200108,2468528,-5454,64,-106,797,-63,-749,54,442,-128
1262,2,2022-09-30T20:28:24.209492,2468537,-5454,64,-106,797,-63,-749,54,442,-128
1263,2,2022-09-30T20:28:24.217001,2468545,-5456,53,-111,891,13,-754,54,442,-128
1264,2,2022-09-30T20:28:24.225501,2468551,-5456,53,-111,891,13,-754,54,442,-128
1265,2,2022-09-30T20:28:24.234778,2468563,-5456,53,-111,891,13,-754,54,442,-128
1266,2,2022-09-30T20:28:24.240386,2468569,-5453,46,-109,1062,0,-700,50,442,-124
1267,2,2022-09-30T20:28:24.248613,2468576,-5453,46,-109,1062,0,-700,50,442,-124
1268,2,2022-09-30T20:28:24.259000,2468587,-5448,41,-116,1265,9,-647,50,442,-124
1269,2,2022-09-30T20:28:24.264690,2468593,-5448,41,-116,1265,9,-647,50,442,-124
1270,2,2022-09-30T20:28:24.272359,2468600,-5448,41,-116,1265,9,-647,50,442,-124
1271,2,2022-09-30T20:28:24.283618,2468612,-5440,39,-120,1446,101,-643,50,442,-124
1272,2,2022-09-30T20:28:24.290514,2468619,-5440,39,-120,1446,101,-643,50,442,-124
1273,2,2022-09-30T20:28:24.299219,2468626,-5450,38,-127,1584,204,-672,50,442,-124
1274,2,2022-09-30T20:28:24.305750,2468634,-5450,38,-127,1584,204,-672,50,442,-124
1275,2,2022-09-30T20:28:24.313443,2468641,-5450,38,-127,1584,204,-672,50,442,-124
1276,2,2022-09-30T20:28:24.320561,2468648,-5451,35,-132,1710,265,-704,50,442,-124
1277,2,2022-09-30T20:28:24.334389,2468663,-5451,35,-132,1710,265,-704,50,442,-124
1278,2,2022-09-30T20:28:24.341425,2468670,-5455,30,-138,1849,269,-710,50,442,-124
1279,2,2022-09-30T20:28:24.350875,2468676,-5455,30,-138,1849,269,-710,50,442,-124
1280,2,2022-09-30T20:28:24.359935,2468688,-5463,28,-139,2020,271,-669,61,431,-119
1281,2,2022-09-30T20:28:24.368050,2468697,-5463,28,-139,2020,271,-669,61,431,-119
1282,2,2022-09-30T20:28:24.375630,2468704,-5473,24,-139,2266,254,-589,61,431,-119
1283,2,2022-09-30T20:28:24.382283,2468711,-5473,24,-139,2266,254,-589,61,431,-119
1284,2,2022-09-30T20:28:24.389764,2468718,-5473,24,-139,2266,254,-589,61,431,-119
1285,2,2022-09-30T20:28:24.397431,2468725,-5460,21,-141,2590,205,-536,61,431,-119
1286,2,2022-09-30T20:28:24.404468,2468732,-5460,21,-141,2590,205,-536,61,431,-119
1287,2,2022-09-30T20:28:24.413372,2468742,-5460,21,-141,2590,205,-536,61,431,-119
1288,2,2022-09-30T20:28:24.419201,2468748,-5459,27,-141,2907,172,-537,61,431,-119
1289,2,2022-09-30T20:28:24.426137,2468753,-5459,27,-141,2907,172,-537,61,431,-119
1290,2,2022-09-30T20:28:24.435956,2468764,-5469,38,-141,3193,178,-587,61,431,-119
1291,2,2022-09-30T20:28:24.441697,2468770,-5469,38,-141,3193,178,-587,61,431,-119
1292,2,2022-09-30T20:28:24.449957,2468777,-5469,38,-141,3193,178,-587,61,431,-119
1293,2,2022-09-30T20:28:24.460831,2468789,-5462,42,-131,3464,179,-636,61,431,-119
1294,2,2022-09-30T20:28:24.467871,2468796,-5462,42,-131,3464,179,-636,61,431,-119
1295,2,2022-09-30T20:28:24.474229,2468801,-5462,42,-131,3464,179,-636,61,431,-119
1296,2,2022-09-30T20:28:24.480466,2468809,-5457,53,-123,3752,126,-666,66,436,-130
1297,2,2022-09-30T20:28:24.489848,2468818,-5457,53,-123,3752,126,-666,66,436,-130
1298,2,2022-09-30T20:28:24.495436,2468824,-5444,60,-126,4036,149,-703,66,436,-130
1299,2,2022-09-30T20:28:24.506333,2468835,-5444,60,-126,4036,149,-703,66,436,-130
1300,2,2022-09-30T20:28:24.512193,2468841,-5444,60,-126,4036,149,-703,66,436,-130
1301,2,2022-09-30T20:28:24.517414,2468846,-5454,69,-123,4324,246,-720,66,436,-130
1302,2,2022-09-30T20:28:24.525007,2468852,-5454,69,-123,4324,246,-720,66,436,-130
1303,2,2022-09-30T20:28:24.533729,2468862,-5454,69,-123,4324,246,-720,66,436,-130
1304,2,2022-09-30T20:28:24.541220,2468870,-5454,81,-123,4590,322,-725,66,436,-130
1305,2,2022-09-30T20:28:24.554225,2468877,-5454,81,-123,4590,322,-725,66,436,-130
1306,2,2022-09-30T20:28:24.564725,2468893,-5462,92,-120,4788,379,-737,66,436,-130
1307,2,2022-09-30T20:28:24.575588,2468902,-5462,92,-120,4788,379,-737,66,436,-130
1308,2,2022-09-30T20:28:24.584996,2468913,-5474,95,-123,4922,389,-778,66,436,-130
1309,2,2022-09-30T20:28:24.594341,2468921,-5474,95,-123,4922,389,-778,66,436,-130
1310,2,2022-09-30T20:28:24.611588,2468938,-5474,104,-113,4996,328,-871,67,447,-135
1311,2,2022-09-30T20:28:24.622870,2468951,-5470,102,-111,5092,261,-1010,67,447,-135
1312,2,2022-09-30T20:28:24.635963,2468964,-5460,91,-109,5223,241,-1155,67,447,-135
1313,2,2022-09-30T20:28:24.645291,2468973,-5460,91,-109,5223,241,-1155,67,447,-135
1314,2,2022-09-30T20:28:24.653157,2468981,-5460,91,-109,5223,241,-1155,67,447,-135
1315,2,2022-09-30T20:28:24.674943,2469000,-5454,93,-106,5379,304,-1309,67,447,-135
1316,2,2022-09-30T20:28:24.685019,2469013,-5447,94,-109,5538,406,-1423,67,447,-135
1317,2,2022-09-30T20:28:24.695663,2469024,-5456,93,-101,5661,476,-1491,67,447,-135
1318,2,2022-09-30T20:28:24.705647,2469032,-5456,93,-101,5661,476,-1491,67,447,-135
1319,2,2022-09-30T20:28:24.714938,2469043,-5456,93,-101,5661,476,-1491,67,447,-135
1320,2,2022-09-30T20:28:24.720499,2469049,-5454,91,-109,5733,537,-1552,71,441,-147
1321,2,2022-09-30T20:28:24.734909,2469056,-5454,91,-109,5733,537,-1552,71,441,-147
1322,2,2022-09-30T20:28:24.743068,2469071,-5450,83,-109,5811,574,-1588,71,441,-147
1323,2,2022-09-30T20:28:24.752529,2469080,-5450,83,-109,5811,574,-1588,71,441,-147
1324,2,2022-09-30T20:28:24.758197,2469087,-5453,77,-111,5882,604,-1601,71,441,-147
1325,2,2022-09-30T20:28:24.765943,2469094,-5453,77,-111,5882,604,-1601,71,441,-147
1326,2,2022-09-30T20:28:24.774587,2469102,-5453,77,-111,5882,604,-1601,71,441,-147
1327,2,2022-09-30T20:28:24.785660,2469111,-5455,74,-111,5987,617,-1612,71,441,-147
1328,2,2022-09-30T20:28:24.794809,2469123,-5455,74,-111,5987,617,-1612,71,441,-147
1329,2,2022-09-30T20:28:24.802079,2469131,-5450,74,-118,6101,643,-1612,71,441,-147
1330,2,2022-09-30T20:28:24.812128,2469141,-5450,74,-118,6101,643,-1612,71,441,-147
1331,2,2022-09-30T20:28:24.817696,2469146,-5450,71,-123,6193,687,-1633,71,441,-147
1332,2,2022-09-30T20:28:24.825816,2469152,-5450,71,-123,6193,687,-1633,71,441,-147
1333,2,2022-09-30T20:28:24.834582,2469163,-5450,71,-123,6193,687,-1633,71,441,-147
1334,2,2022-09-30T20:28:24.841715,2469170,-5455,70,-126,6273,721,-1646,71,441,-147
1335,2,2022-09-30T20:28:24.848758,2469176,-5455,70,-126,6273,721,-1646,71,441,-147
1336,2,2022-09-30T20:28:24.860248,2469188,-5453,68,-124,6340,753,-1659,76,444,-166
1337,2,2022-09-30T20:28:24.867965,2469196,-5453,68,-124,6340,753,-1659,76,444,-166
1338,2,2022-09-30T20:28:24.874438,2469201,-5453,68,-124,6340,753,-1659,76,444,-166
1339,2,2022-09-30T20:28:24.882248,2469211,-5458,67,-128,6418,753,-1648,76,444,-166
1340,2,2022-09-30T20:28:24.889251,2469218,-5458,67,-128,6418,753,-1648,76,444,-166
1341,2,2022-09-30T20:28:24.894580,2469223,-5458,67,-128,6418,753,-1648,76,444,-166
1342,2,2022-09-30T20:28:24.900247,2469228,-5463,68,-128,6487,736,-1627,76,444,-166
1343,2,2022-09-30T20:28:24.907743,2469236,-5463,68,-128,6487,736,-1627,76,444,-166
1344,2,2022-09-30T20:28:24.916070,2469244,-5462,66,-124,6566,700,-1625,76,444,-166
1345,2,2022-09-30T20:28:24.921843,2469250,-5462,66,-124,6566,700,-1625,76,444,-166
1346,2,2022-09-30T20:28:24.930244,2469259,-5462,66,-124,6566,700,-1625,76,444,-166
1347,2,2022-09-30T20:28:24.939093,2469268,-5467,69,-133,6644,679,-1645,76,444,-166
1348,2,2022-09-30T20:28:24.944777,2469273,-5467,69,-133,6644,679,-1645,76,444,-166
1349,2,2022-09-30T20:28:24.952214,2469280,-5467,69,-133,6644,679,-1645,76,444,-166
1350,2,2022-09-30T20:28:24.961972,2469291,-5465,71,-129,6699,681,-1693,76,444,-166
1351,2,2022-09-30T20:28:24.968651,2469297,-5465,71,-129,6699,681,-1693,76,444,-166
1352,2,2022-09-30T20:28:24.983363,2469306,-5463,73,-120,6760,670,-1756,90,446,-180
1353,2,2022-09-30T20:28:24.993162,2469321,-5463,73,-120,6760,670,-1756,90,446,-180
1354,2,2022-09-30T20:28:25.003573,2469330,-5465,70,-118,6795,632,-1818,90,446,-180
1355,2,2022-09-30T20:28:25.015211,2469344,-5465,70,-118,6795,632,-1818,90,446,-180
1356,2,2022-09-30T20:28:25.020805,2469349,-5458,69,-118,6823,604,-1863,90,446,-180
1357,2,2022-09-30T20:28:25.031547,2469357,-5458,69,-118,6823,604,-1863,90,446,-180
1358,2,2022-09-30T20:28:25.039578,2469368,-5453,72,-116,6832,608,-1882,90,446,-180
1359,2,2022-09-30T20:28:25.044945,2469373,-5453,72,-116,6832,608,-1882,90,446,-180
1360,2,2022-09-30T20:28:25.057425,2469386,-5451,70,-114,6823,642,-1885,90,446,-180
1361,2,2022-09-30T20:28:25.064306,2469393,-5451,70,-114,6823,642,-1885,90,446,-180
1362,2,2022-09-30T20:28:25.072653,2469401,-5451,70,-114,6823,642,-1885,90,446,-180
1363,2,2022-09-30T20:28:25.079157,2469407,-5447,65,-112,6780,688,-1898,90,446,-180
1364,2,2022-09-30T20:28:25.084992,2469413,-5447,65,-112,6780,688,-1898,90,446,-180
1365,2,2022-09-30T20:28:25.091532,2469421,-5447,65,-112,6780,688,-1898,90,446,-180
1366,2,2022-09-30T20:28:25.098183,2469427,-5453,63,-105,6689,754,-1915,106,450,-176
1367,2,2022-09-30T20:28:25.108651,2469437,-5453,63,-105,6689,754,-1915,106,450,-176
1368,2,2022-09-30T20:28:25.117078,2469446,-5448,57,-115,6607,794,-1948,106,450,-176
1369,2,2022-09-30T20:28:25.123688,2469451,-5448,57,-115,6607,794,-1948,106,450,-176
1370,2,2022-09-30T20:28:25.132377,2469460,-5448,57,-115,6607,794,-1948,106,450,-176
1371,2,2022-09-30T20:28:25.139286,2469468,-5444,51,-125,6536,824,-2030,106,450,-176
1372,2,2022-09-30T20:28:25.145449,2469474,-5444,51,-125,6536,824,-2030,106,450,-176
1373,2,2022-09-30T20:28:25.153503,2469482,-5444,51,-125,6536,824,-2030,106,450,-176
1374,2,2022-09-30T20:28:25.164350,2469493,-5466,47,-128,6475,887,-2027,106,450,-176
1375,2,2022-09-30T20:28:25.171091,2469499,-5466,47,-128,6475,887,-2027,106,450,-176
1376,2,2022-09-30T20:28:25.179854,2469508,-5477,36,-127,6470,879,-1972,106,450,-176
1377,2,2022-09-30T20:28:25.189404,2469518,-5477,36,-127,6470,879,-1972,106,450,-176
1378,2,2022-09-30T20:28:25.199350,2469527,-5448,37,-138,6471,850,-1921,106,450,-176
1379,2,2022-09-30T20:28:25.205238,2469534,-5448,37,-138,6471,850,-1921,106,450,-176
1380,2,2022-09-30T20:28:25.212856,2469541,-5448,37,-138,6471,850,-1921,106,450,-176
1381,2,2022-09-30T20:28:25.219063,2469547,-5437,29,-139,6433,890,-1926,111,439,-183
1382,2,2022-09-30T20:28:25.225429,2469553,-5437,29,-139,6433,890,-1926,111,439,-183
1383,2,2022-09-30T20:28:25.235337,2469563,-5437,29,-139,6433,890,-1926,111,439,-183
1384,2,2022-09-30T20:28:25.241056,2469569,-5440,35,-152,6424,953,-1911,111,439,-183
1385,2,2022-09-30T20:28:25.248487,2469576,-5440,35,-152,6424,953,-1911,111,439,-183
1386,2,2022-09-30T20:28:25.258980,2469587,-5462,40,-152,6443,1014,-1820,111,439,-183
1387,2,2022-09-30T20:28:25.264474,2469593,-5462,40,-152,6443,1014,-1820,111,439,-183
1388,2,2022-09-30T20:28:25.270962,2469600,-5462,40,-152,6443,1014,-1820,111,439,-183
1389,2,2022-09-30T20:28:25.281418,2469610,-5463,39,-161,6398,1019,-1731,111,439,-183
1390,2,2022-09-30T20:28:25.288602,2469617,-5463,39,-161,6398,1019,-1731,111,439,-183
1391,2,2022-09-30T20:28:25.294574,2469623,-5463,39,-161,6398,1019,-1731,111,439,-183
1392,2,2022-09-30T20:28:25.300324,2469628,-5465,38,-168,6252,1018,-1688,111,439,-183
1393,2,2022-09-30T20:28:25.307435,2469635,-5465,38,-168,6252,1018,-1688,111,439,-183
1394,2,2022-09-30T20:28:25.316775,2469645,-5469,36,-169,6124,973,-1633,111,439,-183
1395,2,2022-09-30T20:28:25.322821,2469651,-5469,36,-169,6124,973,-1633,111,439,-183
1396,2,2022-09-30T20:28:25.334050,2469662,-5469,36,-169,6124,973,-1633,111,439,-183
1397,2,2022-09-30T20:28:25.340619,2469669,-5473,32,-170,6074,879,-1530,135,445,-187
1398,2,2022-09-30T20:28:25.347494,2469676,-5473,32,-170,6074,879,-1530,135,445,-187
1399,2,2022-09-30T20:28:25.360420,2469689,-5473,30,-164,6103,781,-1433,135,445,-187
1400,2,2022-09-30T20:28:25.366983,2469695,-5473,30,-164,6103,781,-1433,135,445,-187
1401,2,2022-09-30T20:28:25.378183,2469702,-5473,30,-164,6103,781,-1433,135,445,-187
1402,2,2022-09-30T20:28:25.385341,2469713,-5473,29,-162,6178,697,-1408,135,445,-187
1403,2,2022-09-30T20:28:25.395313,2469723,-5473,29,-162,6178,697,-1408,135,445,-187
1404,2,2022-09-30T20:28:25.403430,2469732,-5481,34,-159,6263,649,-1451,135,445,-187
1405,2,2022-09-30T20:28:25.413565,2469742,-5481,34,-159,6263,649,-1451,135,445,-187
1406,2,2022-09-30T20:28:25.421762,2469749,-5477,43,-152,6389,585,-1494,135,445,-187
1407,2,2022-09-30T20:28:25.430345,2469758,-5477,43,-152,6389,585,-1494,135,445,-187
1408,2,2022-09-30T20:28:25.436020,2469765,-5469,56,-139,6518,485,-1523,135,445,-187
1409,2,2022-09-30T20:28:25.443247,2469772,-5469,56,-139,6518,485,-1523,135,445,-187
1410,2,2022-09-30T20:28:25.450236,2469777,-5469,56,-139,6518,485,-1523,135,445,-187
1411,2,2022-09-30T20:28:25.460399,2469789,-5455,70,-135,6589,422,-1565,135,445,-187
1412,2,2022-09-30T20:28:25.469700,2469797,-5455,70,-135,6589,422,-1565,135,445,-187
1413,2,2022-09-30T20:28:25.483310,2469811,-5452,80,-122,6558,448,-1619,139,439,-191
1414,2,2022-09-30T20:28:25.491662,2469819,-5452,80,-122,6558,448,-1619,139,439,-191
1415,2,2022-09-30T20:28:25.501909,2469828,-5453,89,-115,6412,516,-1657,139,439,-191
1416,2,2022-09-30T20:28:25.511029,2469839,-5453,89,-115,6412,516,-1657,139,439,-191
1417,2,2022-09-30T20:28:25.522908,2469850,-5449,85,-119,6196,581,-1670,139,439,-191
1418,2,2022-09-30T20:28:25.534963,2469863,-5449,85,-119,6196,581,-1670,139,439,-191
1419,2,2022-09-30T20:28:25.542877,2469871,-5442,78,-116,5949,640,-1664,139,439,-191
1420,2,2022-09-30T20:28:25.549657,2469876,-5442,78,-116,5949,640,-1664,139,439,-191
1421,2,2022-09-30T20:28:25.559540,2469889,-5442,67,-123,5750,712,-1617,139,439,-191
1422,2,2022-09-30T20:28:25.565233,2469894,-5442,67,-123,5750,712,-1617,139,439,-191
1423,2,2022-09-30T20:28:25.571603,2469900,-5442,67,-123,5750,712,-1617,139,439,-191
1424,2,2022-09-30T20:28:25.582492,2469910,-5443,48,-123,5634,778,-1569,139,439,-191
1425,2,2022-09-30T20:28:25.591980,2469920,-5443,48,-123,5634,778,-1569,139,439,-191
1426,2,2022-09-30T20:28:25.597738,2469925,-5442,41,-129,5575,866,-1547,156,434,-192
1427,2,2022-09-30T20:28:25.609277,2469938,-5442,41,-129,5575,866,-1547,156,434,-192
1428,2,2022-09-30T20:28:25.617188,2469946,-5443,42,-141,5522,953,-1527,156,434,-192
1429,2,2022-09-30T20:28:25.623391,2469951,-5443,42,-141,5522,953,-1527,156,434,-192
1430,2,2022-09-30T20:28:25.635206,2469963,-5443,42,-141,5522,953,-1527,156,434,-192
1431,2,2022-09-30T20:28:25.640605,2469969,-5449,43,-151,5476,1021,-1486,156,434,-192
1432,2,2022-09-30T20:28:25.647866,2469976,-5449,43,-151,5476,1021,-1486,156,434,-192
1433,2,2022-09-30T20:28:25.657821,2469986,-5457,43,-153,5436,1047,-1430,156,434,-192
1434,2,2022-09-30T20:28:25.663793,2469992,-5457,43,-153,5436,1047,-1430,156,434,-192
1435,2,2022-09-30T20:28:25.672456,2470000,-5457,43,-153,5436,1047,-1430,156,434,-192
1436,2,2022-09-30T20:28:25.680014,2470008,-5465,39,-160,5435,1050,-1346,156,434,-192
1437,2,2022-09-30T20:28:25.685551,2470013,-5465,39,-160,5435,1050,-1346,156,434,-192
1438,2,2022-09-30T20:28:25.692300,2470021,-5465,39,-160,5435,1050,-1346,156,434,-192
1439,2,2022-09-30T20:28:25.701189,2470028,-5474,43,-168,5462,1020,-1309,156,434,-192
1440,2,2022-09-30T20:28:25.709059,2470038,-5474,43,-168,5462,1020,-1309,156,434,-192
1441,2,2022-09-30T20:28:25.720952,2470049,-5479,48,-164,5449,968,-1297,175,439,-185
1442,2,2022-09-30T20:28:25.733164,2470062,-5479,48,-164,5449,968,-1297,175,439,-185
1443,2,2022-09-30T20:28:25.738677,2470067,-5475,50,-177,5442,877,-1300,175,439,-185
1444,2,2022-09-30T20:28:25.744229,2470073,-5475,50,-177,5442,877,-1300,175,439,-185
1445,2,2022-09-30T20:28:25.751708,2470080,-5475,50,-177,5442,877,-1300,175,439,-185
1446,2,2022-09-30T20:28:25.760432,2470089,-5477,53,-173,5445,796,-1307,175,439,-185
1447,2,2022-09-30T20:28:25.766081,2470094,-5477,53,-173,5445,796,-1307,175,439,-185
1448,2,2022-09-30T20:28:25.773535,2470102,-5477,53,-173,5445,796,-1307,175,439,-185
1449,2,2022-09-30T20:28:25.785029,2470113,-5483,49,-172,5495,696,-1311,175,439,-185
1450,2,2022-09-30T20:28:25.793752,2470122,-5483,49,-172,5495,696,-1311,175,439,-185
1451,2,2022-09-30T20:28:25.800491,2470128,-5481,45,-166,5549,620,-1353,175,439,-185
1452,2,2022-09-30T20:28:25.807179,2470135,-5481,45,-166,5549,620,-1353,175,439,-185
1453,2,2022-09-30T20:28:25.816536,2470146,-5468,53,-163,5567,593,-1418,175,439,-185
1454,2,2022-09-30T20:28:25.825539,2470153,-5468,53,-163,5567,593,-1418,175,439,-185
1455,2,2022-09-30T20:28:25.834549,2470163,-5468,53,-163,5567,593,-1418,175,439,-185
1456,2,2022-09-30T20:28:25.841198,2470170,-5461,61,-159,5560,580,-1470,192,432,-192
1457,2,2022-09-30T20:28:25.847961,2470176,-5461,61,-159,5560,580,-1470,192,432,-192
1458,2,2022-09-30T20:28:25.859168,2470188,-5465,65,-154,5495,534,-1467,192,432,-192
1459,2,2022-09-30T20:28:25.864641,2470194,-5465,65,-154,5495,534,-1467,192,432,-192
1460,2,2022-09-30T20:28:25.870628,2470200,-5465,65,-154,5495,534,-1467,192,432,-192
1461,2,2022-09-30T20:28:25.878389,2470206,-5460,63,-149,5418,511,-1441,192,432,-192
1462,2,2022-09-30T20:28:25.887786,2470216,-5460,63,-149,5418,511,-1441,192,432,-192
