,imu,server_time,arduino_time,ax,ay,az,gx,gy,gz,mx,my,mz
0,1,2022-09-30T20:28:12.951506,2457278,-1656,542,-486,-1316,-214,15,335,379,-47
1,1,2022-09-30T20:28:12.974696,2457289,-1651,544,-480,-1267,-191,-5,340,380,-48
2,1,2022-09-30T20:28:12.983287,2457309,-1654,547,-484,-1231,-176,-38,340,380,-48
3,1,2022-09-30T20:28:12.989142,2457316,-1654,547,-484,-1231,-176,-38,340,380,-48
4,1,2022-09-30T20:28:12.999782,2457325,-1654,547,-484,-1231,-176,-38,340,380,-48
5,1,2022-09-30T20:28:13.007374,2457333,-1651,551,-487,-1190,-169,-75,340,380,-48
6,1,2022-09-30T20:28:13.015670,2457342,-1651,551,-487,-1190,-169,-75,340,380,-48
7,1,2022-09-30T20:28:13.022655,2457349,-1651,551,-487,-1190,-169,-75,340,380,-48
8,1,2022-09-30T20:28:13.029901,2457356,-1657,559,-492,-1213,-180,-122,340,380,-48
9,1,2022-09-30T20:28:13.035465,2457362,-1657,559,-492,-1213,-180,-122,340,380,-48
10,1,2022-09-30T20:28:13.041885,2457368,-1657,559,-492,-1213,-180,-122,340,380,-48
11,1,2022-09-30T20:28:13.049402,2457375,-1659,566,-494,-1284,-219,-153,340,380,-48
12,1,2022-09-30T20:28:13.059000,2457384,-1659,566,-494,-1284,-219,-153,340,380,-48
13,1,2022-09-30T20:28:13.065563,2457392,-1662,564,-491,-1390,-263,-189,340,380,-48
14,1,2022-09-30T20:28:13.071232,2457399,-1662,564,-491,-1390,-263,-189,340,380,-48
15,1,2022-09-30T20:28:13.079168,2457405,-1662,564,-491,-1390,-263,-189,340,380,-48
16,1,2022-09-30T20:28:13.085547,2457412,-1653,554,-491,-1482,-315,-226,340,380,-48
17,1,2022-09-30T20:28:13.092862,2457419,-1653,554,-491,-1482,-315,-226,340,380,-48
18,1,2022-09-30T20:28:13.100698,2457427,-1653,554,-491,-1482,-315,-226,340,380,-48
19,1,2022-09-30T20:28:13.108276,2457434,-1654,542,-487,-1545,-327,-294,338,386,-48
20,1,2022-09-30T20:28:13.117410,2457444,-1654,542,-487,-1545,-327,-294,338,386,-48
21,1,2022-09-30T20:28:13.124684,2457451,-1665,541,-487,-1556,-357,-356,338,386,-48
22,1,2022-09-30T20:28:13.132430,2457458,-1665,541,-487,-1556,-357,-356,338,386,-48
23,1,2022-09-30T20:28:13.140088,2457466,-1665,541,-487,-1556,-357,-356,338,386,-48
24,1,2022-09-30T20:28:13.147553,2457473,-1661,538,-486,-1531,-459,-308,338,386,-48
25,1,2022-09-30T20:28:13.155479,2457482,-1661,538,-486,-1531,-459,-308,338,386,-48
26,1,2022-09-30T20:28:13.163789,2457490,-1650,532,-483,-1496,-464,-219,338,386,-48
27,1,2022-09-30T20:28:13.171085,2457498,-1650,532,-483,-1496,-464,-219,338,386,-48
28,1,2022-09-30T20:28:13.179451,2457505,-1650,532,-483,-1496,-464,-219,338,386,-48
29,1,2022-09-30T20:28:13.187184,2457512,-1654,530,-486,-1493,-412,-172,338,386,-48
30,1,2022-09-30T20:28:13.195246,2457522,-1654,530,-486,-1493,-412,-172,338,386,-48
31,1,2022-09-30T20:28:13.203598,2457530,-1664,535,-479,-1514,-309,-200,338,386,-48
32,1,2022-09-30T20:28:13.212127,2457538,-1664,535,-479,-1514,-309,-200,338,386,-48
33,1,2022-09-30T20:28:13.219730,2457546,-1664,535,-479,-1514,-309,-200,338,386,-48
34,1,2022-09-30T20:28:13.226675,2457552,-1649,532,-478,-1535,-347,-170,334,388,-52
35,1,2022-09-30T20:28:13.232462,2457560,-1649,532,-478,-1535,-347,-170,334,388,-52
36,1,2022-09-30T20:28:13.240315,2457568,-1649,532,-478,-1535,-347,-170,334,388,-52
37,1,2022-09-30T20:28:13.246563,2457573,-1650,520,-485,-1534,-366,-142,334,388,-52
38,1,2022-09-30T20:28:13.255873,2457583,-1650,520,-485,-1534,-366,-142,334,388,-52
39,1,2022-09-30T20:28:13.262236,2457589,-1650,520,-485,-1534,-366,-142,334,388,-52
40,1,2022-09-30T20:28:13.268332,2457595,-1661,521,-483,-1468,-355,-110,334,388,-52
41,1,2022-09-30T20:28:13.277575,2457605,-1661,521,-483,-1468,-355,-110,334,388,-52
42,1,2022-09-30T20:28:13.283443,2457611,-1662,525,-482,-1383,-386,-65,334,388,-52
43,1,2022-09-30T20:28:13.295643,2457616,-1662,525,-482,-1383,-386,-65,334,388,-52
44,1,2022-09-30T20:28:13.305564,2457632,-1655,534,-483,-1321,-409,-11,334,388,-52
45,1,2022-09-30T20:28:13.314510,2457638,-1655,534,-483,-1321,-409,-11,334,388,-52
46,1,2022-09-30T20:28:13.322723,2457650,-1649,542,-482,-1311,-417,23,334,388,-52
47,1,2022-09-30T20:28:13.328897,2457656,-1649,542,-482,-1311,-417,23,334,388,-52
48,1,2022-09-30T20:28:13.337303,2457664,-1649,542,-482,-1311,-417,23,334,388,-52
49,1,2022-09-30T20:28:13.343738,2457670,-1647,543,-473,-1350,-377,33,334,382,-46
50,1,2022-09-30T20:28:13.350172,2457677,-1647,543,-473,-1350,-377,33,334,382,-46
51,1,2022-09-30T20:28:13.358388,2457686,-1647,543,-473,-1350,-377,33,334,382,-46
52,1,2022-09-30T20:28:13.364863,2457692,-1639,551,-477,-1427,-328,11,334,382,-46
53,1,2022-09-30T20:28:13.371158,2457698,-1639,551,-477,-1427,-328,11,334,382,-46
54,1,2022-09-30T20:28:13.377555,2457705,-1639,551,-477,-1427,-328,11,334,382,-46
55,1,2022-09-30T20:28:13.383346,2457710,-1666,549,-472,-1488,-299,-31,334,382,-46
56,1,2022-09-30T20:28:13.392449,2457718,-1666,549,-472,-1488,-299,-31,334,382,-46
57,1,2022-09-30T20:28:13.403299,2457731,-1649,540,-477,-1510,-392,-99,334,382,-46
58,1,2022-09-30T20:28:13.412907,2457740,-1649,540,-477,-1510,-392,-99,334,382,-46
59,1,2022-09-30T20:28:13.421928,2457749,-1649,540,-477,-1510,-392,-99,334,382,-46
60,1,2022-09-30T20:28:13.429107,2457756,-1654,532,-483,-1536,-382,-193,334,382,-46
61,1,2022-09-30T20:28:13.440619,2457766,-1654,532,-483,-1536,-382,-193,334,382,-46
62,1,2022-09-30T20:28:13.447150,2457775,-1663,528,-478,-1502,-370,-262,334,382,-46
63,1,2022-09-30T20:28:13.459461,2457787,-1663,528,-478,-1502,-370,-262,334,382,-46
64,1,2022-09-30T20:28:13.465803,2457793,-1658,525,-472,-1455,-402,-296,338,382,-50
65,1,2022-09-30T20:28:13.474889,2457801,-1658,525,-472,-1455,-402,-296,338,382,-50
66,1,2022-09-30T20:28:13.483327,2457810,-1648,528,-471,-1404,-407,-241,338,382,-50
67,1,2022-09-30T20:28:13.489579,2457817,-1648,528,-471,-1404,-407,-241,338,382,-50
68,1,2022-09-30T20:28:13.497791,2457825,-1648,528,-471,-1404,-407,-241,338,382,-50
69,1,2022-09-30T20:28:13.503806,2457831,-1641,531,-474,-1379,-370,-141,338,382,-50
70,1,2022-09-30T20:28:13.511979,2457839,-1641,531,-474,-1379,-370,-141,338,382,-50
71,1,2022-09-30T20:28:13.519820,2457847,-1641,531,-474,-1379,-370,-141,338,382,-50
72,1,2022-09-30T20:28:13.525882,2457852,-1649,530,-472,-1388,-252,-39,338,382,-50
73,1,2022-09-30T20:28:13.531645,2457860,-1649,530,-472,-1388,-252,-39,338,382,-50
74,1,2022-09-30T20:28:13.537728,2457865,-1649,530,-472,-1388,-252,-39,338,382,-50
75,1,2022-09-30T20:28:13.543910,2457871,-1649,531,-479,-1358,-192,20,338,382,-50
76,1,2022-09-30T20:28:13.550214,2457877,-1649,531,-479,-1358,-192,20,338,382,-50
77,1,2022-09-30T20:28:13.557840,2457885,-1649,531,-479,-1358,-192,20,338,382,-50
78,1,2022-09-30T20:28:13.563237,2457890,-1655,526,-483,-1362,-141,8,338,382,-50
79,1,2022-09-30T20:28:13.570556,2457899,-1655,526,-483,-1362,-141,8,338,382,-50
80,1,2022-09-30T20:28:13.579386,2457907,-1655,526,-483,-1362,-141,8,338,382,-50
81,1,2022-09-30T20:28:13.585568,2457913,-1661,526,-485,-1344,-127,-41,338,382,-50
82,1,2022-09-30T20:28:13.591456,2457919,-1661,526,-485,-1344,-127,-41,338,382,-50
83,1,2022-09-30T20:28:13.598968,2457926,-1661,526,-485,-1344,-127,-41,338,382,-50
84,1,2022-09-30T20:28:13.605316,2457932,-1661,526,-485,-1344,-127,-41,339,379,-45
85,1,2022-09-30T20:28:13.611001,2457938,-1661,526,-485,-1344,-127,-41,339,379,-45
86,1,2022-09-30T20:28:13.618196,2457946,-1661,526,-485,-1344,-127,-41,339,379,-45
87,1,2022-09-30T20:28:13.624067,2457952,-1662,533,-489,-1253,-196,-27,339,379,-45
88,1,2022-09-30T20:28:13.632013,2457959,-1662,533,-489,-1253,-196,-27,339,379,-45
89,1,2022-09-30T20:28:13.637500,2457965,-1662,533,-489,-1253,-196,-27,339,379,-45
90,1,2022-09-30T20:28:13.643254,2457970,-1655,543,-488,-1222,-239,26,339,379,-45
91,1,2022-09-30T20:28:13.649115,2457976,-1655,543,-488,-1222,-239,26,339,379,-45
92,1,2022-09-30T20:28:13.654936,2457982,-1655,543,-488,-1222,-239,26,339,379,-45
93,1,2022-09-30T20:28:13.660623,2457988,-1655,543,-488,-1222,-239,26,339,379,-45
94,1,2022-09-30T20:28:13.665965,2457994,-1657,547,-485,-1244,-260,63,339,379,-45
95,1,2022-09-30T20:28:13.673493,2458001,-1657,547,-485,-1244,-260,63,339,379,-45
96,1,2022-09-30T20:28:13.679183,2458007,-1657,547,-485,-1244,-260,63,339,379,-45
97,1,2022-09-30T20:28:13.684852,2458012,-1651,552,-492,-1309,-288,87,339,379,-45
98,1,2022-09-30T20:28:13.690410,2458017,-1651,552,-492,-1309,-288,87,339,379,-45
99,1,2022-09-30T20:28:13.705072,2458024,-1651,552,-492,-1309,-288,87,339,379,-45
100,1,2022-09-30T20:28:13.711255,2458038,-1654,553,-488,-1386,-270,62,339,379,-45
101,1,2022-09-30T20:28:13.716650,2458044,-1654,553,-488,-1386,-270,62,339,379,-45
102,1,2022-09-30T20:28:13.722287,2458050,-1658,540,-488,-1468,-274,-2,339,379,-45
103,1,2022-09-30T20:28:13.727520,2458055,-1658,540,-488,-1468,-274,-2,342,388,-42
104,1,2022-09-30T20:28:13.735222,2458062,-1658,540,-488,-1468,-274,-2,342,388,-42
105,1,2022-09-30T20:28:13.741042,2458068,-1658,540,-488,-1468,-274,-2,342,388,-42
106,1,2022-09-30T20:28:13.746546,2458074,-1659,537,-489,-1509,-308,-89,342,388,-42
107,1,2022-09-30T20:28:13.752501,2458079,-1659,537,-489,-1509,-308,-89,342,388,-42
108,1,2022-09-30T20:28:13.757659,2458085,-1659,537,-489,-1509,-308,-89,342,388,-42
109,1,2022-09-30T20:28:13.763033,2458090,-1658,534,-490,-1509,-339,-176,342,388,-42
110,1,2022-09-30T20:28:13.768795,2458096,-1658,534,-490,-1509,-339,-176,342,388,-42
111,1,2022-09-30T20:28:13.776684,2458103,-1658,534,-490,-1509,-339,-176,342,388,-42
112,1,2022-09-30T20:28:13.783215,2458110,-1653,534,-486,-1516,-368,-190,342,388,-42
113,1,2022-09-30T20:28:13.788914,2458117,-1653,534,-486,-1516,-368,-190,342,388,-42
114,1,2022-09-30T20:28:13.794779,2458122,-1653,534,-486,-1516,-368,-190,342,388,-42
115,1,2022-09-30T20:28:13.800448,2458128,-1653,534,-486,-1516,-368,-190,342,388,-42
116,1,2022-09-30T20:28:13.806049,2458133,-1657,529,-483,-1508,-406,-150,342,388,-42
117,1,2022-09-30T20:28:13.811733,2458139,-1657,529,-483,-1508,-406,-150,342,388,-42
118,1,2022-09-30T20:28:13.819188,2458146,-1657,529,-483,-1508,-406,-150,342,388,-42
119,1,2022-09-30T20:28:13.824796,2458152,-1654,531,-478,-1504,-408,-113,342,388,-42
120,1,2022-09-30T20:28:13.830443,2458158,-1654,531,-478,-1504,-408,-113,342,388,-42
121,1,2022-09-30T20:28:13.839138,2458163,-1654,531,-478,-1504,-408,-113,342,388,-42
122,1,2022-09-30T20:28:13.844979,2458172,-1651,536,-471,-1503,-406,-93,339,383,-47
123,1,2022-09-30T20:28:13.850316,2458178,-1651,536,-471,-1503,-406,-93,339,383,-47
124,1,2022-09-30T20:28:13.858287,2458185,-1651,536,-471,-1503,-406,-93,339,383,-47
125,1,2022-09-30T20:28:13.864025,2458191,-1655,527,-482,-1526,-357,-78,339,383,-47
126,1,2022-09-30T20:28:13.869616,2458196,-1655,527,-482,-1526,-357,-78,339,383,-47
127,1,2022-09-30T20:28:13.875389,2458203,-1655,527,-482,-1526,-357,-78,339,383,-47
128,1,2022-09-30T20:28:13.881166,2458209,-1655,527,-482,-1526,-357,-78,339,383,-47
129,1,2022-09-30T20:28:13.886905,2458214,-1658,529,-477,-1516,-306,-64,339,383,-47
130,1,2022-09-30T20:28:13.893526,2458220,-1658,529,-477,-1516,-306,-64,339,383,-47
131,1,2022-09-30T20:28:13.899172,2458226,-1658,529,-477,-1516,-306,-64,339,383,-47
132,1,2022-09-30T20:28:13.904600,2458232,-1656,529,-485,-1488,-291,-12,339,383,-47
133,1,2022-09-30T20:28:13.910778,2458237,-1656,529,-485,-1488,-291,-12,339,383,-47
134,1,2022-09-30T20:28:13.918220,2458246,-1656,529,-485,-1488,-291,-12,339,383,-47
135,1,2022-09-30T20:28:13.924321,2458252,-1653,532,-484,-1448,-281,37,339,383,-47
136,1,2022-09-30T20:28:13.930703,2458258,-1653,532,-484,-1448,-281,37,339,383,-47
137,1,2022-09-30T20:28:13.936239,2458263,-1653,532,-484,-1448,-281,37,339,383,-47
138,1,2022-09-30T20:28:13.942088,2458269,-1653,532,-484,-1448,-281,37,339,383,-47
139,1,2022-09-30T20:28:13.948162,2458275,-1652,536,-482,-1403,-277,83,339,383,-47
140,1,2022-09-30T20:28:13.955506,2458283,-1652,536,-482,-1403,-277,83,339,383,-47
141,1,2022-09-30T20:28:13.961107,2458289,-1652,536,-482,-1403,-277,83,339,383,-47
142,1,2022-09-30T20:28:13.967036,2458294,-1653,540,-487,-1385,-269,79,342,390,-44
143,1,2022-09-30T20:28:13.975123,2458300,-1653,540,-487,-1385,-269,79,342,390,-44
144,1,2022-09-30T20:28:13.980856,2458308,-1653,540,-487,-1385,-269,79,342,390,-44
145,1,2022-09-30T20:28:13.986772,2458314,-1653,540,-487,-1385,-269,79,342,390,-44
146,1,2022-09-30T20:28:13.993040,2458319,-1653,540,-487,-1385,-269,79,342,390,-44
147,1,2022-09-30T20:28:13.998848,2458327,-1653,540,-487,-1385,-269,79,342,390,-44
148,1,2022-09-30T20:28:14.004969,2458332,-1654,541,-484,-1365,-274,24,342,390,-44
149,1,2022-09-30T20:28:14.011220,2458338,-1654,541,-484,-1365,-274,24,342,390,-44
150,1,2022-09-30T20:28:14.017565,2458344,-1654,541,-484,-1365,-274,24,342,390,-44
151,1,2022-09-30T20:28:14.023885,2458351,-1660,541,-488,-1372,-283,-32,342,390,-44
152,1,2022-09-30T20:28:14.030229,2458358,-1660,541,-488,-1372,-283,-32,342,390,-44
153,1,2022-09-30T20:28:14.038169,2458365,-1660,541,-488,-1372,-283,-32,342,390,-44
154,1,2022-09-30T20:28:14.044072,2458372,-1653,542,-489,-1382,-321,-69,342,390,-44
155,1,2022-09-30T20:28:14.050246,2458378,-1653,542,-489,-1382,-321,-69,342,390,-44
156,1,2022-09-30T20:28:14.055574,2458383,-1653,542,-489,-1382,-321,-69,342,390,-44
157,1,2022-09-30T20:28:14.061463,2458389,-1653,542,-489,-1382,-321,-69,342,390,-44
158,1,2022-09-30T20:28:14.067453,2458395,-1657,548,-487,-1399,-324,-80,342,390,-44
159,1,2022-09-30T20:28:14.075345,2458402,-1657,548,-487,-1399,-324,-80,342,390,-44
160,1,2022-09-30T20:28:14.081369,2458408,-1657,548,-487,-1399,-324,-80,342,390,-44
161,1,2022-09-30T20:28:14.087922,2458415,-1653,555,-485,-1420,-335,-48,336,380,-42
162,1,2022-09-30T20:28:14.096486,2458424,-1653,555,-485,-1420,-335,-48,336,380,-42
163,1,2022-09-30T20:28:14.102615,2458430,-1653,555,-485,-1420,-335,-48,336,380,-42
164,1,2022-09-30T20:28:14.108677,2458436,-1663,551,-478,-1454,-342,-9,336,380,-42
165,1,2022-09-30T20:28:14.118028,2458441,-1663,551,-478,-1454,-342,-9,336,380,-42
166,1,2022-09-30T20:28:14.123513,2458451,-1635,540,-488,-1484,-340,-27,336,380,-42
167,1,2022-09-30T20:28:14.130829,2458459,-1635,540,-488,-1484,-340,-27,336,380,-42
168,1,2022-09-30T20:28:14.136587,2458464,-1635,540,-488,-1484,-340,-27,336,380,-42
169,1,2022-09-30T20:28:14.142154,2458470,-1635,540,-488,-1484,-340,-27,336,380,-42
170,1,2022-09-30T20:28:14.147681,2458475,-1646,530,-492,-1506,-204,-110,336,380,-42
171,1,2022-09-30T20:28:14.157869,2458484,-1646,530,-492,-1506,-204,-110,336,380,-42
172,1,2022-09-30T20:28:14.163028,2458490,-1662,532,-492,-1462,-121,-199,336,380,-42
173,1,2022-09-30T20:28:14.168869,2458497,-1662,532,-492,-1462,-121,-199,336,380,-42
174,1,2022-09-30T20:28:14.174156,2458502,-1662,532,-492,-1462,-121,-199,336,380,-42
175,1,2022-09-30T20:28:14.179860,2458507,-1662,532,-492,-1462,-121,-199,336,380,-42
176,1,2022-09-30T20:28:14.185522,2458513,-1664,529,-495,-1395,-202,-217,336,380,-42
177,1,2022-09-30T20:28:14.191449,2458518,-1664,529,-495,-1395,-202,-217,336,380,-42
178,1,2022-09-30T20:28:14.199160,2458526,-1664,529,-495,-1395,-202,-217,336,380,-42
179,1,2022-09-30T20:28:14.205000,2458532,-1664,532,-495,-1337,-319,-213,336,380,-42
180,1,2022-09-30T20:28:14.210859,2458537,-1664,532,-495,-1337,-319,-213,336,380,-42
181,1,2022-09-30T20:28:14.219069,2458546,-1664,532,-495,-1337,-319,-213,336,380,-42
182,1,2022-09-30T20:28:14.224961,2458552,-1658,543,-489,-1363,-417,-167,339,391,-51
183,1,2022-09-30T20:28:14.231041,2458558,-1658,543,-489,-1363,-417,-167,339,391,-51
184,1,2022-09-30T20:28:14.239189,2458566,-1658,543,-489,-1363,-417,-167,339,391,-51
185,1,2022-09-30T20:28:14.245394,2458572,-1656,548,-483,-1450,-457,-124,339,391,-51
186,1,2022-09-30T20:28:14.251220,2458578,-1656,548,-483,-1450,-457,-124,339,391,-51
187,1,2022-09-30T20:28:14.259150,2458586,-1656,548,-483,-1450,-457,-124,339,391,-51
188,1,2022-09-30T20:28:14.265137,2458593,-1648,542,-481,-1572,-456,-77,339,391,-51
189,1,2022-09-30T20:28:14.271116,2458598,-1648,542,-481,-1572,-456,-77,339,391,-51
190,1,2022-09-30T20:28:14.277312,2458604,-1648,542,-481,-1572,-456,-77,339,391,-51
191,1,2022-09-30T20:28:14.283043,2458610,-1649,532,-479,-1665,-413,-50,339,391,-51
192,1,2022-09-30T20:28:14.291526,2458618,-1649,532,-479,-1665,-413,-50,339,391,-51
193,1,2022-09-30T20:28:14.299451,2458627,-1649,532,-479,-1665,-413,-50,339,391,-51
194,1,2022-09-30T20:28:14.306199,2458633,-1650,521,-486,-1705,-377,-45,339,391,-51
195,1,2022-09-30T20:28:14.314836,2458642,-1650,521,-486,-1705,-377,-45,339,391,-51
196,1,2022-09-30T20:28:14.323072,2458650,-1658,530,-488,-1683,-338,-58,339,391,-51
197,1,2022-09-30T20:28:14.330576,2458658,-1658,530,-488,-1683,-338,-58,339,391,-51
198,1,2022-09-30T20:28:14.337938,2458664,-1658,530,-488,-1683,-338,-58,339,391,-51
199,1,2022-09-30T20:28:14.344002,2458672,-1665,535,-470,-1637,-380,-2,340,390,-44
200,1,2022-09-30T20:28:14.351389,2458679,-1665,535,-470,-1637,-380,-2,340,390,-44
201,1,2022-09-30T20:28:14.360571,2458688,-1665,535,-470,-1637,-380,-2,340,390,-44
202,1,2022-09-30T20:28:14.366364,2458693,-1645,535,-479,-1600,-463,62,340,390,-44
203,1,2022-09-30T20:28:14.373965,2458701,-1645,535,-479,-1600,-463,62,340,390,-44
204,1,2022-09-30T20:28:14.385756,2458712,-1642,525,-475,-1552,-406,52,340,390,-44
205,1,2022-09-30T20:28:14.400145,2458727,-1642,525,-475,-1552,-406,52,340,390,-44
206,1,2022-09-30T20:28:14.411843,2458737,-1653,522,-478,-1448,-313,-14,340,390,-44
207,1,2022-09-30T20:28:14.429373,2458757,-1656,528,-474,-1333,-278,-80,340,390,-44
208,1,2022-09-30T20:28:14.441363,2458767,-1656,528,-474,-1333,-278,-80,340,390,-44
209,1,2022-09-30T20:28:14.452838,2458779,-1652,541,-475,-1252,-292,-88,340,390,-44
210,1,2022-09-30T20:28:14.469372,2458796,-1652,556,-477,-1260,-281,-59,334,382,-50
211,1,2022-09-30T20:28:14.487518,2458812,-1649,561,-484,-1353,-251,-7,334,382,-50
212,1,2022-09-30T20:28:14.500152,2458827,-1649,561,-484,-1353,-251,-7,334,382,-50
213,1,2022-09-30T20:28:14.515157,2458840,-1652,554,-486,-1487,-178,21,334,382,-50
214,1,2022-09-30T20:28:14.535876,2458862,-1658,540,-486,-1548,-144,18,334,382,-50
215,1,2022-09-30T20:28:14.550321,2458877,-1661,524,-498,-1522,-153,-28,334,382,-50
216,1,2022-09-30T20:28:14.559874,2458887,-1661,524,-498,-1522,-153,-28,334,382,-50
217,1,2022-09-30T20:28:14.566522,2458894,-1663,520,-493,-1417,-215,-91,334,382,-50
218,1,2022-09-30T20:28:14.577761,2458905,-1663,520,-493,-1417,-215,-91,334,382,-50
219,1,2022-09-30T20:28:14.585097,2458912,-1660,530,-494,-1316,-290,-132,332,384,-50
220,1,2022-09-30T20:28:14.592509,2458919,-1660,530,-494,-1316,-290,-132,332,384,-50
221,1,2022-09-30T20:28:14.604155,2458932,-1653,542,-491,-1258,-345,-124,332,384,-50
222,1,2022-09-30T20:28:14.609906,2458937,-1653,542,-491,-1258,-345,-124,332,384,-50
223,1,2022-09-30T20:28:14.622696,2458948,-1653,542,-491,-1258,-345,-124,332,384,-50
224,1,2022-09-30T20:28:14.628800,2458956,-1652,558,-493,-1289,-357,-74,332,384,-50
225,1,2022-09-30T20:28:14.640326,2458968,-1652,558,-493,-1289,-357,-74,332,384,-50
226,1,2022-09-30T20:28:14.647360,2458974,-1647,554,-489,-1391,-334,-17,332,384,-50
227,1,2022-09-30T20:28:14.658094,2458985,-1647,554,-489,-1391,-334,-17,332,384,-50
228,1,2022-09-30T20:28:14.668845,2458994,-1653,550,-488,-1509,-310,-20,332,384,-50
229,1,2022-09-30T20:28:14.677927,2459005,-1653,550,-488,-1509,-310,-20,332,384,-50
230,1,2022-09-30T20:28:14.693168,2459020,-1657,538,-494,-1577,-305,-59,332,384,-50
231,1,2022-09-30T20:28:14.703372,2459031,-1659,530,-494,-1608,-331,-122,332,384,-50
232,1,2022-09-30T20:28:14.711952,2459040,-1659,530,-494,-1608,-331,-122,332,384,-50
233,1,2022-09-30T20:28:14.720571,2459048,-1659,530,-494,-1608,-331,-122,332,384,-50
234,1,2022-09-30T20:28:14.726244,2459054,-1656,529,-484,-1570,-367,-172,338,390,-46
235,1,2022-09-30T20:28:14.736163,2459064,-1656,529,-484,-1570,-367,-172,338,390,-46
236,1,2022-09-30T20:28:14.744816,2459072,-1655,528,-483,-1505,-368,-191,338,390,-46
237,1,2022-09-30T20:28:14.752866,2459080,-1655,528,-483,-1505,-368,-191,338,390,-46
238,1,2022-09-30T20:28:14.762793,2459090,-1651,532,-486,-1434,-346,-169,338,390,-46
239,1,2022-09-30T20:28:14.772682,2459101,-1651,532,-486,-1434,-346,-169,338,390,-46
240,1,2022-09-30T20:28:14.782661,2459111,-1653,529,-486,-1408,-306,-128,338,390,-46
241,1,2022-09-30T20:28:14.792925,2459119,-1653,529,-486,-1408,-306,-128,338,390,-46
242,1,2022-09-30T20:28:14.801930,2459129,-1653,529,-486,-1408,-306,-128,338,390,-46
243,1,2022-09-30T20:28:14.807318,2459134,-1650,538,-488,-1386,-285,-73,338,390,-46
244,1,2022-09-30T20:28:14.812597,2459141,-1650,538,-488,-1386,-285,-73,338,390,-46
245,1,2022-09-30T20:28:14.819421,2459147,-1650,538,-488,-1386,-285,-73,338,390,-46
246,1,2022-09-30T20:28:14.827834,2459152,-1653,531,-488,-1385,-262,-50,338,390,-46
247,1,2022-09-30T20:28:14.837070,2459161,-1653,531,-488,-1385,-262,-50,338,390,-46
248,1,2022-09-30T20:28:14.848874,2459176,-1654,529,-485,-1392,-261,-65,330,388,-54
249,1,2022-09-30T20:28:14.870548,2459195,-1657,531,-486,-1400,-288,-103,330,388,-54
250,1,2022-09-30T20:28:14.880657,2459208,-1657,531,-486,-1400,-288,-103,330,388,-54
251,1,2022-09-30T20:28:14.890632,2459217,-1656,535,-489,-1409,-300,-114,330,388,-54
252,1,2022-09-30T20:28:14.905396,2459233,-1656,535,-489,-1409,-300,-114,330,388,-54
253,1,2022-09-30T20:28:14.911851,2459239,-1656,535,-489,-1409,-300,-114,330,388,-54
254,1,2022-09-30T20:28:14.919844,2459247,-1656,535,-489,-1409,-300,-114,330,388,-54
255,1,2022-09-30T20:28:14.925130,2459253,-1657,534,-494,-1456,-320,-66,330,388,-54
256,1,2022-09-30T20:28:14.937287,2459258,-1657,534,-494,-1456,-320,-66,330,388,-54
257,1,2022-09-30T20:28:14.948340,2459276,-1654,529,-491,-1461,-330,-19,330,388,-54
258,1,2022-09-30T20:28:14.956230,2459284,-1654,529,-491,-1461,-330,-19,330,388,-54
259,1,2022-09-30T20:28:14.962160,2459289,-1654,529,-491,-1461,-330,-19,330,388,-54
260,1,2022-09-30T20:28:14.967851,2459295,-1657,531,-494,-1453,-332,-5,339,381,-49
261,1,2022-09-30T20:28:14.977571,2459304,-1657,531,-494,-1453,-332,-5,339,381,-49
262,1,2022-09-30T20:28:14.983989,2459312,-1658,531,-488,-1433,-349,-20,339,381,-49
263,1,2022-09-30T20:28:14.989425,2459317,-1658,531,-488,-1433,-349,-20,339,381,-49
264,1,2022-09-30T20:28:15.000683,2459326,-1658,531,-488,-1433,-349,-20,339,381,-49
265,1,2022-09-30T20:28:15.007116,2459334,-1652,539,-493,-1429,-375,-44,339,381,-49
266,1,2022-09-30T20:28:15.014703,2459340,-1652,539,-493,-1429,-375,-44,339,381,-49
267,1,2022-09-30T20:28:15.024021,2459352,-1653,541,-495,-1439,-374,-39,339,381,-49
268,1,2022-09-30T20:28:15.035264,2459363,-1653,541,-495,-1439,-374,-39,339,381,-49
269,1,2022-09-30T20:28:15.046444,2459370,-1648,545,-491,-1452,-370,-14,339,381,-49
270,1,2022-09-30T20:28:15.055948,2459382,-1648,545,-491,-1452,-370,-14,339,381,-49
271,1,2022-09-30T20:28:15.065521,2459393,-1653,557,-483,-1509,-329,19,339,381,-49
272,1,2022-09-30T20:28:15.073109,2459401,-1653,557,-483,-1509,-329,19,339,381,-49
273,1,2022-09-30T20:28:15.082942,2459410,-1666,554,-485,-1560,-343,65,332,386,-50
274,1,2022-09-30T20:28:15.088858,2459416,-1666,554,-485,-1560,-343,65,332,386,-50
275,1,2022-09-30T20:28:15.096564,2459424,-1666,554,-485,-1560,-343,65,332,386,-50
276,1,2022-09-30T20:28:15.104045,2459431,-1643,549,-486,-1595,-379,44,332,386,-50
277,1,2022-09-30T20:28:15.111166,2459439,-1643,549,-486,-1595,-379,44,332,386,-50
278,1,2022-09-30T20:28:15.119986,2459448,-1643,549,-486,-1595,-379,44,332,386,-50
279,1,2022-09-30T20:28:15.126400,2459453,-1644,531,-495,-1620,-314,-63,332,386,-50
280,1,2022-09-30T20:28:15.135764,2459462,-1644,531,-495,-1620,-314,-63,332,386,-50
281,1,2022-09-30T20:28:15.148289,2459472,-1662,528,-492,-1594,-218,-223,332,386,-50
282,1,2022-09-30T20:28:15.155692,2459483,-1662,528,-492,-1594,-218,-223,332,386,-50
283,1,2022-09-30T20:28:15.165949,2459493,-1667,528,-496,-1505,-299,-297,332,386,-50
284,1,2022-09-30T20:28:15.176638,2459503,-1667,528,-496,-1505,-299,-297,332,386,-50
285,1,2022-09-30T20:28:15.191929,2459518,-1666,529,-497,-1426,-436,-306,332,386,-50
286,1,2022-09-30T20:28:15.205996,2459533,-1666,529,-497,-1426,-436,-306,332,386,-50
287,1,2022-09-30T20:28:15.214792,2459541,-1666,529,-497,-1426,-436,-306,332,386,-50
288,1,2022-09-30T20:28:15.239208,2459554,-1652,549,-476,-1495,-537,-175,343,383,-39
289,1,2022-09-30T20:28:15.253256,2459580,-1646,543,-479,-1606,-503,-97,343,383,-39
290,1,2022-09-30T20:28:15.261037,2459587,-1646,543,-479,-1606,-503,-97,343,383,-39
291,1,2022-09-30T20:28:15.266884,2459594,-1645,528,-480,-1696,-445,-54,343,383,-39
292,1,2022-09-30T20:28:15.278030,2459606,-1645,528,-480,-1696,-445,-54,343,383,-39
293,1,2022-09-30T20:28:15.285982,2459613,-1652,515,-486,-1701,-368,-72,343,383,-39
294,1,2022-09-30T20:28:15.297541,2459622,-1652,515,-486,-1701,-368,-72,343,383,-39
295,1,2022-09-30T20:28:15.305828,2459633,-1651,515,-483,-1638,-335,-134,343,383,-39
296,1,2022-09-30T20:28:15.313298,2459640,-1651,515,-483,-1638,-335,-134,343,383,-39
297,1,2022-09-30T20:28:15.321167,2459648,-1651,515,-483,-1638,-335,-134,343,383,-39
298,1,2022-09-30T20:28:15.327648,2459655,-1661,522,-479,-1568,-342,-166,343,383,-39
299,1,2022-09-30T20:28:15.336162,2459663,-1661,522,-479,-1568,-342,-166,343,383,-39
300,1,2022-09-30T20:28:15.344192,2459671,-1648,530,-477,-1505,-388,-139,340,380,-50
301,1,2022-09-30T20:28:15.353844,2459681,-1648,530,-477,-1505,-388,-139,340,380,-50
302,1,2022-09-30T20:28:15.361080,2459688,-1648,530,-477,-1505,-388,-139,340,380,-50
303,1,2022-09-30T20:28:15.366921,2459695,-1640,526,-482,-1505,-360,-82,340,380,-50
304,1,2022-09-30T20:28:15.377260,2459705,-1640,526,-482,-1505,-360,-82,340,380,-50
305,1,2022-09-30T20:28:15.384664,2459712,-1658,526,-482,-1526,-277,-73,340,380,-50
306,1,2022-09-30T20:28:15.391449,2459719,-1658,526,-482,-1526,-277,-73,340,380,-50
307,1,2022-09-30T20:28:15.401559,2459729,-1658,526,-482,-1526,-277,-73,340,380,-50
308,1,2022-09-30T20:28:15.407298,2459735,-1663,525,-479,-1521,-291,-68,340,380,-50
309,1,2022-09-30T20:28:15.416115,2459744,-1663,525,-479,-1521,-291,-68,340,380,-50
310,1,2022-09-30T20:28:15.426069,2459754,-1661,524,-482,-1517,-351,-69,340,380,-50
311,1,2022-09-30T20:28:15.433831,2459761,-1661,524,-482,-1517,-351,-69,340,380,-50
312,1,2022-09-30T20:28:15.442395,2459769,-1661,524,-482,-1517,-351,-69,340,380,-50
313,1,2022-09-30T20:28:15.449761,2459777,-1650,525,-477,-1501,-391,-56,340,380,-50
314,1,2022-09-30T20:28:15.460564,2459788,-1650,525,-477,-1501,-391,-56,340,380,-50
315,1,2022-09-30T20:28:15.466661,2459794,-1648,528,-475,-1500,-373,-32,340,382,-44
316,1,2022-09-30T20:28:15.475100,2459802,-1648,528,-475,-1500,-373,-32,340,382,-44
317,1,2022-09-30T20:28:15.482996,2459810,-1650,530,-477,-1494,-323,-10,340,382,-44
318,1,2022-09-30T20:28:15.488866,2459816,-1650,530,-477,-1494,-323,-10,340,382,-44
319,1,2022-09-30T20:28:15.496143,2459824,-1650,530,-477,-1494,-323,-10,340,382,-44
320,1,2022-09-30T20:28:15.502780,2459831,-1647,530,-478,-1488,-277,15,340,382,-44
321,1,2022-09-30T20:28:15.508565,2459836,-1647,530,-478,-1488,-277,15,340,382,-44
322,1,2022-09-30T20:28:15.516452,2459844,-1647,530,-478,-1488,-277,15,340,382,-44
323,1,2022-09-30T20:28:15.524554,2459851,-1656,531,-487,-1478,-241,15,340,382,-44
324,1,2022-09-30T20:28:15.532887,2459860,-1656,531,-487,-1478,-241,15,340,382,-44
325,1,2022-09-30T20:28:15.540570,2459868,-1656,531,-487,-1478,-241,15,340,382,-44
326,1,2022-09-30T20:28:15.547735,2459875,-1656,532,-485,-1451,-240,17,340,382,-44
327,1,2022-09-30T20:28:15.556575,2459884,-1656,532,-485,-1451,-240,17,340,382,-44
328,1,2022-09-30T20:28:15.563908,2459891,-1657,530,-490,-1405,-268,10,340,382,-44
329,1,2022-09-30T20:28:15.571190,2459897,-1657,530,-490,-1405,-268,10,340,382,-44
330,1,2022-09-30T20:28:15.581008,2459909,-1657,530,-490,-1405,-268,10,340,382,-44
331,1,2022-09-30T20:28:15.586608,2459914,-1655,534,-485,-1359,-298,-5,343,387,-41
332,1,2022-09-30T20:28:15.592327,2459920,-1655,534,-485,-1359,-298,-5,343,387,-41
333,1,2022-09-30T20:28:15.603001,2459930,-1655,534,-485,-1359,-298,-5,343,387,-41
334,1,2022-09-30T20:28:15.608917,2459936,-1653,545,-484,-1349,-309,-13,343,387,-41
335,1,2022-09-30T20:28:15.620110,2459948,-1653,545,-484,-1349,-309,-13,343,387,-41
336,1,2022-09-30T20:28:15.626370,2459954,-1654,545,-486,-1380,-328,-6,343,387,-41
337,1,2022-09-30T20:28:15.633098,2459961,-1654,545,-486,-1380,-328,-6,343,387,-41
338,1,2022-09-30T20:28:15.640385,2459967,-1654,545,-486,-1380,-328,-6,343,387,-41
339,1,2022-09-30T20:28:15.647063,2459974,-1652,548,-487,-1428,-339,-13,343,387,-41
340,1,2022-09-30T20:28:15.655154,2459982,-1652,548,-487,-1428,-339,-13,343,387,-41
341,1,2022-09-30T20:28:15.662599,2459990,-1652,548,-487,-1428,-339,-13,343,387,-41
342,1,2022-09-30T20:28:15.668556,2459996,-1649,539,-493,-1490,-337,-37,343,387,-41
343,1,2022-09-30T20:28:15.677933,2460005,-1649,539,-493,-1490,-337,-37,343,387,-41
344,1,2022-09-30T20:28:15.685136,2460013,-1654,534,-490,-1513,-331,-114,343,387,-41
345,1,2022-09-30T20:28:15.690581,2460018,-1654,534,-490,-1513,-331,-114,343,387,-41
346,1,2022-09-30T20:28:15.697097,2460024,-1654,534,-490,-1513,-331,-114,343,387,-41
347,1,2022-09-30T20:28:15.705293,2460033,-1655,532,-492,-1505,-334,-202,343,387,-41
348,1,2022-09-30T20:28:15.712856,2460041,-1655,532,-492,-1505,-334,-202,343,387,-41
349,1,2022-09-30T20:28:15.721592,2460047,-1655,532,-492,-1505,-334,-202,343,387,-41
350,1,2022-09-30T20:28:15.728039,2460055,-1659,532,-482,-1500,-366,-229,339,377,-45
351,1,2022-09-30T20:28:15.736707,2460064,-1659,532,-482,-1500,-366,-229,339,377,-45
352,1,2022-09-30T20:28:15.743967,2460071,-1654,532,-486,-1497,-380,-220,339,377,-45
353,1,2022-09-30T20:28:15.752531,2460080,-1654,532,-486,-1497,-380,-220,339,377,-45
354,1,2022-09-30T20:28:15.761129,2460088,-1654,532,-486,-1497,-380,-220,339,377,-45
355,1,2022-09-30T20:28:15.766212,2460094,-1652,526,-482,-1493,-388,-186,339,377,-45
356,1,2022-09-30T20:28:15.774448,2460102,-1652,526,-482,-1493,-388,-186,339,377,-45
357,1,2022-09-30T20:28:15.781051,2460108,-1652,526,-482,-1493,-388,-186,339,377,-45
358,1,2022-09-30T20:28:15.786434,2460114,-1654,526,-485,-1482,-372,-126,339,377,-45
359,1,2022-09-30T20:28:15.792926,2460121,-1654,526,-485,-1482,-372,-126,339,377,-45
360,1,2022-09-30T20:28:15.802800,2460130,-1654,526,-485,-1482,-372,-126,339,377,-45
361,1,2022-09-30T20:28:15.808111,2460136,-1653,524,-485,-1480,-357,-89,339,377,-45
362,1,2022-09-30T20:28:15.814898,2460142,-1653,524,-485,-1480,-357,-89,339,377,-45
363,1,2022-09-30T20:28:15.821759,2460149,-1653,524,-485,-1480,-357,-89,339,377,-45
364,1,2022-09-30T20:28:15.827193,2460154,-1653,526,-485,-1477,-344,-77,339,377,-45
365,1,2022-09-30T20:28:15.834181,2460162,-1653,526,-485,-1477,-344,-77,339,377,-45
366,1,2022-09-30T20:28:15.839705,2460168,-1653,526,-485,-1477,-344,-77,339,377,-45
367,1,2022-09-30T20:28:15.845118,2460173,-1655,527,-481,-1491,-351,-77,331,383,-43
368,1,2022-09-30T20:28:15.851427,2460179,-1655,527,-481,-1491,-351,-77,331,383,-43
369,1,2022-09-30T20:28:15.858106,2460186,-1655,527,-481,-1491,-351,-77,331,383,-43
370,1,2022-09-30T20:28:15.863526,2460191,-1653,525,-480,-1503,-334,-92,331,383,-43
371,1,2022-09-30T20:28:15.868928,2460196,-1653,525,-480,-1503,-334,-92,331,383,-43
372,1,2022-09-30T20:28:15.875067,2460203,-1653,525,-480,-1503,-334,-92,331,383,-43
373,1,2022-09-30T20:28:15.880824,2460208,-1653,525,-480,-1503,-334,-92,331,383,-43
374,1,2022-09-30T20:28:15.886532,2460215,-1652,525,-485,-1512,-343,-81,331,383,-43
375,1,2022-09-30T20:28:15.892748,2460220,-1652,525,-485,-1512,-343,-81,331,383,-43
376,1,2022-09-30T20:28:15.901843,2460229,-1652,525,-485,-1512,-343,-81,331,383,-43
377,1,2022-09-30T20:28:15.907194,2460235,-1651,520,-482,-1508,-353,-52,331,383,-43
378,1,2022-09-30T20:28:15.913946,2460241,-1651,520,-482,-1508,-353,-52,331,383,-43
379,1,2022-09-30T20:28:15.922062,2460249,-1651,520,-482,-1508,-353,-52,331,383,-43
380,1,2022-09-30T20:28:15.928344,2460256,-1652,526,-478,-1483,-339,-24,331,383,-43
381,1,2022-09-30T20:28:15.936115,2460264,-1652,526,-478,-1483,-339,-24,331,383,-43
382,1,2022-09-30T20:28:15.943445,2460270,-1651,528,-482,-1471,-346,-3,331,383,-43
383,1,2022-09-30T20:28:15.954096,2460281,-1651,528,-482,-1471,-346,-3,331,383,-43
384,1,2022-09-30T20:28:15.964328,2460293,-1649,527,-474,-1454,-341,-5,343,385,-47
385,1,2022-09-30T20:28:15.971598,2460299,-1649,527,-474,-1454,-341,-5,343,385,-47
386,1,2022-09-30T20:28:15.978746,2460306,-1649,527,-474,-1454,-341,-5,343,385,-47
387,1,2022-09-30T20:28:15.983838,2460312,-1653,527,-480,-1441,-339,-10,343,385,-47
388,1,2022-09-30T20:28:15.990106,2460318,-1653,527,-480,-1441,-339,-10,343,385,-47
389,1,2022-09-30T20:28:15.996733,2460324,-1653,527,-480,-1441,-339,-10,343,385,-47
390,1,2022-09-30T20:28:16.002363,2460329,-1653,527,-480,-1441,-339,-10,343,385,-47
391,1,2022-09-30T20:28:16.007368,2460336,-1647,528,-481,-1418,-318,0,343,385,-47
392,1,2022-09-30T20:28:16.013965,2460341,-1647,528,-481,-1418,-318,0,343,385,-47
393,1,2022-09-30T20:28:16.020516,2460348,-1647,528,-481,-1418,-318,0,343,385,-47
394,1,2022-09-30T20:28:16.025636,2460354,-1662,536,-482,-1421,-306,-1,343,385,-47
395,1,2022-09-30T20:28:16.031953,2460360,-1662,536,-482,-1421,-306,-1,343,385,-47
396,1,2022-09-30T20:28:16.038522,2460366,-1662,536,-482,-1421,-306,-1,343,385,-47
397,1,2022-09-30T20:28:16.043897,2460371,-1651,541,-484,-1432,-385,43,343,385,-47
398,1,2022-09-30T20:28:16.052106,2460380,-1651,541,-484,-1432,-385,43,343,385,-47
399,1,2022-09-30T20:28:16.058719,2460387,-1651,541,-484,-1432,-385,43,343,385,-47
400,1,2022-09-30T20:28:16.064457,2460392,-1648,534,-485,-1444,-365,54,343,385,-47
401,1,2022-09-30T20:28:16.071983,2460398,-1648,534,-485,-1444,-365,54,343,385,-47
402,1,2022-09-30T20:28:16.081077,2460408,-1648,534,-485,-1444,-365,54,343,385,-47
403,1,2022-09-30T20:28:16.087312,2460414,-1642,527,-483,-1444,-292,-9,337,381,-53
404,1,2022-09-30T20:28:16.094683,2460422,-1642,527,-483,-1444,-292,-9,337,381,-53
405,1,2022-09-30T20:28:16.104244,2460432,-1663,525,-478,-1464,-201,-159,337,381,-53
406,1,2022-09-30T20:28:16.111175,2460439,-1663,525,-478,-1464,-201,-159,337,381,-53
407,1,2022-09-30T20:28:16.117750,2460445,-1663,525,-478,-1464,-201,-159,337,381,-53
408,1,2022-09-30T20:28:16.124011,2460451,-1655,528,-483,-1443,-255,-211,337,381,-53
409,1,2022-09-30T20:28:16.130241,2460459,-1655,528,-483,-1443,-255,-211,337,381,-53
410,1,2022-09-30T20:28:16.137679,2460466,-1655,528,-483,-1443,-255,-211,337,381,-53
411,1,2022-09-30T20:28:16.143649,2460471,-1651,525,-491,-1414,-330,-187,337,381,-53
412,1,2022-09-30T20:28:16.151053,2460479,-1651,525,-491,-1414,-330,-187,337,381,-53
413,1,2022-09-30T20:28:16.157553,2460485,-1651,525,-491,-1414,-330,-187,337,381,-53
414,1,2022-09-30T20:28:16.163002,2460490,-1651,525,-491,-1414,-330,-187,337,381,-53
415,1,2022-09-30T20:28:16.168575,2460496,-1656,530,-490,-1398,-370,-127,337,381,-53
416,1,2022-09-30T20:28:16.177300,2460506,-1656,530,-490,-1398,-370,-127,337,381,-53
417,1,2022-09-30T20:28:16.183737,2460512,-1659,530,-485,-1413,-404,-62,337,381,-53
418,1,2022-09-30T20:28:16.190666,2460518,-1659,530,-485,-1413,-404,-62,337,381,-53
419,1,2022-09-30T20:28:16.197084,2460525,-1659,530,-485,-1413,-404,-62,337,381,-53
420,1,2022-09-30T20:28:16.202716,2460530,-1659,530,-485,-1413,-404,-62,337,381,-53
421,1,2022-09-30T20:28:16.208219,2460536,-1655,536,-486,-1461,-416,-34,337,381,-53
422,1,2022-09-30T20:28:16.214057,2460541,-1655,536,-486,-1461,-416,-34,337,381,-53
423,1,2022-09-30T20:28:16.220857,2460549,-1655,536,-486,-1461,-416,-34,337,381,-53
424,1,2022-09-30T20:28:16.226089,2460554,-1655,531,-478,-1500,-420,-16,333,377,-45
425,1,2022-09-30T20:28:16.232235,2460560,-1655,531,-478,-1500,-420,-16,333,377,-45
426,1,2022-09-30T20:28:16.239277,2460567,-1655,531,-478,-1500,-420,-16,333,377,-45
427,1,2022-09-30T20:28:16.244915,2460572,-1653,524,-484,-1526,-416,-21,333,377,-45
428,1,2022-09-30T20:28:16.252009,2460580,-1653,524,-484,-1526,-416,-21,333,377,-45
429,1,2022-09-30T20:28:16.258732,2460587,-1653,524,-484,-1526,-416,-21,333,377,-45
430,1,2022-09-30T20:28:16.263877,2460592,-1645,528,-478,-1520,-404,-43,333,377,-45
431,1,2022-09-30T20:28:16.270994,2460598,-1645,528,-478,-1520,-404,-43,333,377,-45
432,1,2022-09-30T20:28:16.278471,2460606,-1645,528,-478,-1520,-404,-43,333,377,-45
433,1,2022-09-30T20:28:16.283630,2460611,-1660,528,-479,-1499,-382,-37,333,377,-45
434,1,2022-09-30T20:28:16.289832,2460617,-1660,528,-479,-1499,-382,-37,333,377,-45
435,1,2022-09-30T20:28:16.297104,2460624,-1660,528,-479,-1499,-382,-37,333,377,-45
436,1,2022-09-30T20:28:16.302472,2460631,-1660,528,-479,-1499,-382,-37,333,377,-45
437,1,2022-09-30T20:28:16.307801,2460636,-1647,530,-481,-1472,-416,-12,333,377,-45
438,1,2022-09-30T20:28:16.314275,2460642,-1647,530,-481,-1472,-416,-12,333,377,-45
439,1,2022-09-30T20:28:16.321649,2460648,-1647,530,-481,-1472,-416,-12,333,377,-45
440,1,2022-09-30T20:28:16.327017,2460655,-1651,524,-477,-1461,-362,-13,333,377,-45
441,1,2022-09-30T20:28:16.333814,2460661,-1651,524,-477,-1461,-362,-13,333,377,-45
442,1,2022-09-30T20:28:16.339204,2460666,-1651,524,-477,-1461,-362,-13,333,377,-45
443,1,2022-09-30T20:28:16.345113,2460673,-1658,531,-468,-1452,-314,-32,345,377,-47
444,1,2022-09-30T20:28:16.354512,2460682,-1658,531,-468,-1452,-314,-32,345,377,-47
445,1,2022-09-30T20:28:16.361592,2460689,-1658,531,-468,-1452,-314,-32,345,377,-47
446,1,2022-09-30T20:28:16.367275,2460695,-1658,531,-480,-1417,-340,-20,345,377,-47
447,1,2022-09-30T20:28:16.375323,2460703,-1658,531,-480,-1417,-340,-20,345,377,-47
448,1,2022-09-30T20:28:16.382937,2460710,-1658,531,-480,-1417,-340,-20,345,377,-47
449,1,2022-09-30T20:28:16.388413,2460717,-1651,529,-477,-1382,-364,-6,345,377,-47
450,1,2022-09-30T20:28:16.396987,2460724,-1651,529,-477,-1382,-364,-6,345,377,-47
451,1,2022-09-30T20:28:16.403999,2460732,-1647,533,-481,-1378,-342,-14,345,377,-47
452,1,2022-09-30T20:28:16.410547,2460738,-1647,533,-481,-1378,-342,-14,345,377,-47
453,1,2022-09-30T20:28:16.417158,2460744,-1647,533,-481,-1378,-342,-14,345,377,-47
454,1,2022-09-30T20:28:16.425260,2460752,-1652,538,-479,-1406,-305,-43,345,377,-47
455,1,2022-09-30T20:28:16.431073,2460759,-1652,538,-479,-1406,-305,-43,345,377,-47
456,1,2022-09-30T20:28:16.437491,2460765,-1652,538,-479,-1406,-305,-43,345,377,-47
457,1,2022-09-30T20:28:16.442548,2460771,-1652,538,-479,-1406,-305,-43,345,377,-47
458,1,2022-09-30T20:28:16.448144,2460776,-1654,540,-474,-1429,-272,-63,345,377,-47
459,1,2022-09-30T20:28:16.455079,2460782,-1654,540,-474,-1429,-272,-63,345,377,-47
460,1,2022-09-30T20:28:16.462290,2460790,-1654,540,-474,-1429,-272,-63,345,377,-47
461,1,2022-09-30T20:28:16.467418,2460795,-1657,532,-478,-1462,-254,-79,344,382,-46
462,1,2022-09-30T20:28:16.474815,2460803,-1657,532,-478,-1462,-254,-79,344,382,-46
463,1,2022-09-30T20:28:16.480944,2460809,-1657,532,-478,-1462,-254,-79,344,382,-46
464,1,2022-09-30T20:28:16.486238,2460814,-1660,529,-484,-1472,-241,-87,344,382,-46
465,1,2022-09-30T20:28:16.491519,2460819,-1660,529,-484,-1472,-241,-87,344,382,-46
466,1,2022-09-30T20:28:16.498921,2460826,-1660,529,-484,-1472,-241,-87,344,382,-46
467,1,2022-09-30T20:28:16.504094,2460832,-1656,529,-484,-1455,-257,-74,344,382,-46
468,1,2022-09-30T20:28:16.510193,2460838,-1656,529,-484,-1455,-257,-74,344,382,-46
469,1,2022-09-30T20:28:16.516623,2460845,-1656,529,-484,-1455,-257,-74,344,382,-46
470,1,2022-09-30T20:28:16.523735,2460851,-1656,529,-484,-1455,-257,-74,344,382,-46
471,1,2022-09-30T20:28:16.528990,2460857,-1660,530,-487,-1437,-285,-53,344,382,-46
472,1,2022-09-30T20:28:16.537648,2460865,-1660,530,-487,-1437,-285,-53,344,382,-46
473,1,2022-09-30T20:28:16.544461,2460872,-1656,536,-483,-1437,-317,-37,344,382,-46
474,1,2022-09-30T20:28:16.552112,2460880,-1656,536,-483,-1437,-317,-37,344,382,-46
475,1,2022-09-30T20:28:16.558751,2460887,-1656,536,-483,-1437,-317,-37,344,382,-46
476,1,2022-09-30T20:28:16.563851,2460892,-1660,538,-483,-1455,-351,-15,344,382,-46
477,1,2022-09-30T20:28:16.570843,2460898,-1660,538,-483,-1455,-351,-15,344,382,-46
478,1,2022-09-30T20:28:16.578277,2460906,-1660,538,-483,-1455,-351,-15,344,382,-46
479,1,2022-09-30T20:28:16.583814,2460911,-1656,541,-478,-1483,-374,-9,337,383,-47
480,1,2022-09-30T20:28:16.590337,2460918,-1656,541,-478,-1483,-374,-9,337,383,-47
481,1,2022-09-30T20:28:16.598299,2460923,-1656,541,-478,-1483,-374,-9,337,383,-47
482,1,2022-09-30T20:28:16.603999,2460932,-1652,540,-473,-1530,-387,-2,337,383,-47
483,1,2022-09-30T20:28:16.610582,2460939,-1652,540,-473,-1530,-387,-2,337,383,-47
484,1,2022-09-30T20:28:16.619101,2460947,-1652,540,-473,-1530,-387,-2,337,383,-47
485,1,2022-09-30T20:28:16.625598,2460953,-1653,534,-474,-1566,-368,-29,337,383,-47
486,1,2022-09-30T20:28:16.631786,2460960,-1653,534,-474,-1566,-368,-29,337,383,-47
487,1,2022-09-30T20:28:16.637754,2460965,-1653,534,-474,-1566,-368,-29,337,383,-47
488,1,2022-09-30T20:28:16.643011,2460971,-1653,534,-474,-1566,-368,-29,337,383,-47
489,1,2022-09-30T20:28:16.648837,2460977,-1651,532,-480,-1578,-367,-58,337,383,-47
490,1,2022-09-30T20:28:16.655128,2460983,-1651,532,-480,-1578,-367,-58,337,383,-47
491,1,2022-09-30T20:28:16.661414,2460989,-1651,532,-480,-1578,-367,-58,337,383,-47
492,1,2022-09-30T20:28:16.666656,2460994,-1653,532,-476,-1572,-362,-104,337,383,-47
493,1,2022-09-30T20:28:16.673733,2461001,-1653,532,-476,-1572,-362,-104,337,383,-47
494,1,2022-09-30T20:28:16.680591,2461008,-1653,532,-476,-1572,-362,-104,337,383,-47
495,1,2022-09-30T20:28:16.685808,2461014,-1653,528,-477,-1551,-357,-139,337,383,-47
496,1,2022-09-30T20:28:16.692052,2461020,-1653,528,-477,-1551,-357,-139,337,383,-47
497,1,2022-09-30T20:28:16.697792,2461025,-1653,528,-477,-1551,-357,-139,337,383,-47
498,1,2022-09-30T20:28:16.704068,2461032,-1652,527,-476,-1515,-351,-147,337,383,-47
499,1,2022-09-30T20:28:16.708992,2461037,-1652,527,-476,-1515,-351,-147,337,383,-47
500,1,2022-09-30T20:28:16.715444,2461043,-1652,527,-476,-1515,-351,-147,337,383,-47
501,1,2022-09-30T20:28:16.722827,2461049,-1652,527,-476,-1515,-351,-147,337,383,-47
502,1,2022-09-30T20:28:16.728756,2461057,-1652,524,-468,-1482,-324,-141,337,383,-47
503,1,2022-09-30T20:28:16.737787,2461065,-1652,524,-468,-1482,-324,-141,337,383,-47
504,1,2022-09-30T20:28:16.745399,2461073,-1648,526,-475,-1453,-307,-122,337,383,-47
505,1,2022-09-30T20:28:16.753809,2461081,-1648,526,-475,-1453,-307,-122,337,383,-47
506,1,2022-09-30T20:28:16.762914,2461090,-1648,526,-475,-1453,-307,-122,337,383,-47
507,1,2022-09-30T20:28:16.769444,2461096,-1648,524,-481,-1438,-273,-104,337,383,-47
508,1,2022-09-30T20:28:16.780330,2461108,-1648,524,-481,-1438,-273,-104,337,383,-47
509,1,2022-09-30T20:28:16.787612,2461115,-1657,523,-484,-1408,-228,-107,337,383,-47
510,1,2022-09-30T20:28:16.793265,2461120,-1657,523,-484,-1408,-228,-107,337,383,-47
511,1,2022-09-30T20:28:16.804615,2461132,-1655,529,-481,-1392,-226,-92,337,383,-47
512,1,2022-09-30T20:28:16.813438,2461140,-1655,529,-481,-1392,-226,-92,337,383,-47
513,1,2022-09-30T20:28:16.825045,2461153,-1654,529,-486,-1403,-230,-84,337,383,-47
514,1,2022-09-30T20:28:16.832627,2461160,-1654,529,-486,-1403,-230,-84,337,383,-47
515,1,2022-09-30T20:28:16.849837,2461174,-1656,533,-482,-1441,-238,-65,344,388,-42
516,1,2022-09-30T20:28:16.858343,2461186,-1656,533,-482,-1441,-238,-65,344,388,-42
517,1,2022-09-30T20:28:16.867482,2461195,-1658,532,-486,-1485,-260,-25,344,388,-42
518,1,2022-09-30T20:28:16.875442,2461203,-1658,532,-486,-1485,-260,-25,344,388,-42
519,1,2022-09-30T20:28:16.884538,2461212,-1658,534,-482,-1510,-289,-1,344,388,-42
520,1,2022-09-30T20:28:16.890795,2461218,-1658,534,-482,-1510,-289,-1,344,388,-42
521,1,2022-09-30T20:28:16.897212,2461223,-1658,534,-482,-1510,-289,-1,344,388,-42
522,1,2022-09-30T20:28:16.903065,2461231,-1658,534,-482,-1510,-289,-1,344,388,-42
523,1,2022-09-30T20:28:16.908320,2461236,-1652,526,-482,-1511,-343,11,344,388,-42
524,1,2022-09-30T20:28:16.914707,2461243,-1652,526,-482,-1511,-343,11,344,388,-42
525,1,2022-09-30T20:28:16.921676,2461249,-1652,526,-482,-1511,-343,11,344,388,-42
526,1,2022-09-30T20:28:16.926939,2461254,-1656,525,-483,-1475,-358,-7,344,388,-42
527,1,2022-09-30T20:28:16.933824,2461261,-1656,525,-483,-1475,-358,-7,344,388,-42
528,1,2022-09-30T20:28:16.942132,2461270,-1656,525,-483,-1475,-358,-7,344,388,-42
529,1,2022-09-30T20:28:16.948040,2461276,-1646,521,-486,-1406,-351,-43,344,388,-42
530,1,2022-09-30T20:28:16.957172,2461285,-1646,521,-486,-1406,-351,-43,344,388,-42
531,1,2022-09-30T20:28:16.966128,2461294,-1656,534,-474,-1365,-298,-91,339,379,-53
532,1,2022-09-30T20:28:16.973743,2461300,-1656,534,-474,-1365,-298,-91,339,379,-53
533,1,2022-09-30T20:28:16.982783,2461310,-1656,534,-474,-1365,-298,-91,339,379,-53
534,1,2022-09-30T20:28:16.988401,2461316,-1656,548,-476,-1364,-317,-65,339,379,-53
535,1,2022-09-30T20:28:16.994818,2461322,-1656,548,-476,-1364,-317,-65,339,379,-53
536,1,2022-09-30T20:28:17.002424,2461330,-1656,548,-476,-1364,-317,-65,339,379,-53
537,1,2022-09-30T20:28:17.007515,2461335,-1649,547,-478,-1421,-334,-8,339,379,-53
538,1,2022-09-30T20:28:17.013656,2461342,-1649,547,-478,-1421,-334,-8,339,379,-53
539,1,2022-09-30T20:28:17.021006,2461347,-1649,547,-478,-1421,-334,-8,339,379,-53
540,1,2022-09-30T20:28:17.026778,2461355,-1637,540,-490,-1511,-279,13,339,379,-53
541,1,2022-09-30T20:28:17.032241,2461360,-1637,540,-490,-1511,-279,13,339,379,-53
542,1,2022-09-30T20:28:17.040105,2461367,-1637,540,-490,-1511,-279,13,339,379,-53
543,1,2022-09-30T20:28:17.046500,2461374,-1660,535,-486,-1579,-131,-52,339,379,-53
544,1,2022-09-30T20:28:17.053357,2461381,-1660,535,-486,-1579,-131,-52,339,379,-53
545,1,2022-09-30T20:28:17.059826,2461387,-1660,535,-486,-1579,-131,-52,339,379,-53
546,1,2022-09-30T20:28:17.065153,2461392,-1666,520,-492,-1542,-154,-139,339,379,-53
547,1,2022-09-30T20:28:17.072041,2461400,-1666,520,-492,-1542,-154,-139,339,379,-53
548,1,2022-09-30T20:28:17.078886,2461406,-1666,520,-492,-1542,-154,-139,339,379,-53
549,1,2022-09-30T20:28:17.084620,2461412,-1660,513,-497,-1436,-280,-203,345,387,-47
550,1,2022-09-30T20:28:17.089709,2461418,-1660,513,-497,-1436,-280,-203,345,387,-47
551,1,2022-09-30T20:28:17.095364,2461423,-1660,513,-497,-1436,-280,-203,345,387,-47
552,1,2022-09-30T20:28:17.103860,2461431,-1659,522,-487,-1351,-383,-243,345,387,-47
553,1,2022-09-30T20:28:17.110441,2461438,-1659,522,-487,-1351,-383,-243,345,387,-47
554,1,2022-09-30T20:28:17.116800,2461445,-1659,522,-487,-1351,-383,-243,345,387,-47
555,1,2022-09-30T20:28:17.122440,2461450,-1659,522,-487,-1351,-383,-243,345,387,-47
556,1,2022-09-30T20:28:17.127650,2461456,-1659,522,-487,-1351,-383,-243,345,387,-47
557,1,2022-09-30T20:28:17.133101,2461461,-1659,522,-487,-1351,-383,-243,345,387,-47
558,1,2022-09-30T20:28:17.140025,2461467,-1659,522,-487,-1351,-383,-243,345,387,-47
559,1,2022-09-30T20:28:17.145879,2461473,-1650,543,-482,-1424,-453,-129,345,387,-47
560,1,2022-09-30T20:28:17.153096,2461481,-1650,543,-482,-1424,-453,-129,345,387,-47
561,1,2022-09-30T20:28:17.159667,2461488,-1650,543,-482,-1424,-453,-129,345,387,-47
562,1,2022-09-30T20:28:17.165042,2461493,-1651,535,-474,-1550,-416,-45,345,387,-47
563,1,2022-09-30T20:28:17.171730,2461499,-1651,535,-474,-1550,-416,-45,345,387,-47
564,1,2022-09-30T20:28:17.179232,2461507,-1651,535,-474,-1550,-416,-45,345,387,-47
565,1,2022-09-30T20:28:17.184762,2461512,-1649,528,-476,-1655,-360,-10,345,387,-47
566,1,2022-09-30T20:28:17.191427,2461519,-1649,528,-476,-1655,-360,-10,345,387,-47
567,1,2022-09-30T20:28:17.197646,2461526,-1649,528,-476,-1655,-360,-10,345,387,-47
568,1,2022-09-30T20:28:17.202993,2461531,-1649,528,-476,-1655,-360,-10,345,387,-47
569,1,2022-09-30T20:28:17.208440,2461536,-1655,515,-485,-1700,-304,-21,345,387,-47
570,1,2022-09-30T20:28:17.215870,2461544,-1655,515,-485,-1700,-304,-21,345,387,-47
571,1,2022-09-30T20:28:17.224975,2461552,-1661,511,-479,-1635,-300,-39,337,389,-41
572,1,2022-09-30T20:28:17.230624,2461558,-1661,511,-479,-1635,-300,-39,337,389,-41
573,1,2022-09-30T20:28:17.237675,2461565,-1661,511,-479,-1635,-300,-39,337,389,-41
574,1,2022-09-30T20:28:17.242904,2461571,-1661,511,-479,-1635,-300,-39,337,389,-41
575,1,2022-09-30T20:28:17.249071,2461576,-1660,511,-478,-1517,-351,-20,337,389,-41
576,1,2022-09-30T20:28:17.254601,2461582,-1660,511,-478,-1517,-351,-20,337,389,-41
577,1,2022-09-30T20:28:17.261450,2461589,-1660,511,-478,-1517,-351,-20,337,389,-41
578,1,2022-09-30T20:28:17.266622,2461594,-1643,516,-483,-1407,-393,12,337,389,-41
579,1,2022-09-30T20:28:17.275064,2461602,-1643,516,-483,-1407,-393,12,337,389,-41
580,1,2022-09-30T20:28:17.284278,2461612,-1648,526,-479,-1360,-319,35,337,389,-41
581,1,2022-09-30T20:28:17.293938,2461621,-1648,526,-479,-1360,-319,35,337,389,-41
582,1,2022-09-30T20:28:17.303103,2461631,-1648,526,-479,-1360,-319,35,337,389,-41
583,1,2022-09-30T20:28:17.309147,2461636,-1654,536,-481,-1362,-271,55,337,389,-41
584,1,2022-09-30T20:28:17.318408,2461645,-1654,536,-481,-1362,-271,55,337,389,-41
585,1,2022-09-30T20:28:17.325295,2461652,-1650,536,-479,-1386,-272,64,337,389,-41
586,1,2022-09-30T20:28:17.332508,2461661,-1650,536,-479,-1386,-272,64,337,389,-41
587,1,2022-09-30T20:28:17.341370,2461669,-1650,536,-479,-1386,-272,64,337,389,-41
588,1,2022-09-30T20:28:17.347717,2461675,-1652,536,-481,-1422,-264,50,339,379,-47
589,1,2022-09-30T20:28:17.355188,2461682,-1652,536,-481,-1422,-264,50,339,379,-47
590,1,2022-09-30T20:28:17.360209,2461688,-1652,536,-481,-1422,-264,50,339,379,-47
591,1,2022-09-30T20:28:17.365874,2461693,-1651,539,-488,-1463,-261,9,339,379,-47
592,1,2022-09-30T20:28:17.372652,2461700,-1651,539,-488,-1463,-261,9,339,379,-47
593,1,2022-09-30T20:28:17.379611,2461708,-1651,539,-488,-1463,-261,9,339,379,-47
594,1,2022-09-30T20:28:17.385347,2461713,-1650,538,-482,-1488,-260,-28,339,379,-47
595,1,2022-09-30T20:28:17.392471,2461720,-1650,538,-482,-1488,-260,-28,339,379,-47
596,1,2022-09-30T20:28:17.401344,2461727,-1650,538,-482,-1488,-260,-28,339,379,-47
597,1,2022-09-30T20:28:17.406826,2461735,-1655,537,-486,-1494,-256,-30,339,379,-47
598,1,2022-09-30T20:28:17.412959,2461741,-1655,537,-486,-1494,-256,-30,339,379,-47
599,1,2022-09-30T20:28:17.419488,2461747,-1655,537,-486,-1494,-256,-30,339,379,-47
600,1,2022-09-30T20:28:17.428523,2461756,-1651,532,-487,-1480,-241,-24,339,379,-47
601,1,2022-09-30T20:28:17.434936,2461763,-1651,532,-487,-1480,-241,-24,339,379,-47
602,1,2022-09-30T20:28:17.443816,2461771,-1656,528,-491,-1441,-232,-32,339,379,-47
603,1,2022-09-30T20:28:17.451072,2461778,-1656,528,-491,-1441,-232,-32,339,379,-47
604,1,2022-09-30T20:28:17.457703,2461786,-1656,528,-491,-1441,-232,-32,339,379,-47
605,1,2022-09-30T20:28:17.463510,2461792,-1657,530,-490,-1398,-249,-66,339,379,-47
606,1,2022-09-30T20:28:17.470236,2461798,-1657,530,-490,-1398,-249,-66,338,384,-50
607,1,2022-09-30T20:28:17.476099,2461804,-1657,530,-490,-1398,-249,-66,338,384,-50
608,1,2022-09-30T20:28:17.482614,2461810,-1657,530,-490,-1398,-249,-66,338,384,-50
609,1,2022-09-30T20:28:17.487547,2461815,-1656,534,-488,-1375,-260,-101,338,384,-50
610,1,2022-09-30T20:28:17.494286,2461821,-1656,534,-488,-1375,-260,-101,338,384,-50
611,1,2022-09-30T20:28:17.505102,2461833,-1660,536,-486,-1381,-295,-118,338,384,-50
612,1,2022-09-30T20:28:17.511829,2461840,-1660,536,-486,-1381,-295,-118,338,384,-50
613,1,2022-09-30T20:28:17.518635,2461846,-1660,536,-486,-1381,-295,-118,338,384,-50
614,1,2022-09-30T20:28:17.524761,2461852,-1659,539,-487,-1417,-333,-122,338,384,-50
615,1,2022-09-30T20:28:17.530202,2461858,-1659,539,-487,-1417,-333,-122,338,384,-50
616,1,2022-09-30T20:28:17.538364,2461867,-1659,539,-487,-1417,-333,-122,338,384,-50
617,1,2022-09-30T20:28:17.545166,2461873,-1655,538,-492,-1481,-365,-95,338,384,-50
618,1,2022-09-30T20:28:17.551998,2461880,-1655,538,-492,-1481,-365,-95,338,384,-50
619,1,2022-09-30T20:28:17.560284,2461888,-1655,538,-492,-1481,-365,-95,338,384,-50
620,1,2022-09-30T20:28:17.565927,2461893,-1654,532,-487,-1532,-368,-61,338,384,-50
621,1,2022-09-30T20:28:17.573817,2461901,-1654,532,-487,-1532,-368,-61,338,384,-50
622,1,2022-09-30T20:28:17.580777,2461908,-1654,532,-487,-1532,-368,-61,338,384,-50
623,1,2022-09-30T20:28:17.586140,2461914,-1653,531,-485,-1552,-352,-25,338,382,-48
624,1,2022-09-30T20:28:17.592299,2461921,-1653,531,-485,-1552,-352,-25,338,382,-48
625,1,2022-09-30T20:28:17.602000,2461930,-1653,531,-485,-1552,-352,-25,338,382,-48
626,1,2022-09-30T20:28:17.607433,2461935,-1654,530,-478,-1542,-333,4,338,382,-48
627,1,2022-09-30T20:28:17.613684,2461941,-1654,530,-478,-1542,-333,4,338,382,-48
628,1,2022-09-30T20:28:17.621488,2461947,-1654,530,-478,-1542,-333,4,338,382,-48
629,1,2022-09-30T20:28:17.627299,2461955,-1656,529,-484,-1504,-321,2,338,382,-48
630,1,2022-09-30T20:28:17.634278,2461962,-1656,529,-484,-1504,-321,2,338,382,-48
631,1,2022-09-30T20:28:17.641513,2461969,-1656,529,-484,-1504,-321,2,338,382,-48
632,1,2022-09-30T20:28:17.647764,2461975,-1655,529,-486,-1460,-313,-18,338,382,-48
633,1,2022-09-30T20:28:17.654487,2461982,-1655,529,-486,-1460,-313,-18,338,382,-48
634,1,2022-09-30T20:28:17.661327,2461988,-1655,529,-486,-1460,-313,-18,338,382,-48
635,1,2022-09-30T20:28:17.667926,2461996,-1655,533,-486,-1430,-316,-61,338,382,-48
636,1,2022-09-30T20:28:17.676618,2462004,-1655,533,-486,-1430,-316,-61,338,382,-48
637,1,2022-09-30T20:28:17.683137,2462011,-1655,533,-486,-1430,-316,-61,338,382,-48
638,1,2022-09-30T20:28:17.688829,2462016,-1651,536,-483,-1414,-315,-77,338,382,-48
639,1,2022-09-30T20:28:17.697553,2462024,-1651,536,-483,-1414,-315,-77,338,382,-48
640,1,2022-09-30T20:28:17.706723,2462034,-1654,534,-485,-1421,-310,-76,338,382,-48
641,1,2022-09-30T20:28:17.712439,2462040,-1654,534,-485,-1421,-310,-76,338,382,-48
642,1,2022-09-30T20:28:17.720404,2462048,-1654,534,-485,-1421,-310,-76,338,382,-48
643,1,2022-09-30T20:28:17.726513,2462055,-1654,537,-483,-1425,-311,-55,338,382,-48
644,1,2022-09-30T20:28:17.733182,2462061,-1654,537,-483,-1425,-311,-55,338,382,-48
645,1,2022-09-30T20:28:17.740155,2462068,-1654,537,-483,-1425,-311,-55,338,382,-48
646,1,2022-09-30T20:28:17.745778,2462073,-1655,531,-488,-1429,-300,-48,338,382,-48
647,1,2022-09-30T20:28:17.751321,2462080,-1655,531,-488,-1429,-300,-48,338,382,-48
648,1,2022-09-30T20:28:17.756757,2462085,-1655,531,-488,-1429,-300,-48,338,382,-48
649,1,2022-09-30T20:28:17.762149,2462090,-1655,531,-488,-1429,-300,-48,338,382,-48
650,1,2022-09-30T20:28:17.767527,2462095,-1652,533,-491,-1443,-294,-68,338,382,-48
651,1,2022-09-30T20:28:17.775222,2462103,-1652,533,-491,-1443,-294,-68,338,382,-48
652,1,2022-09-30T20:28:17.781935,2462109,-1652,533,-491,-1443,-294,-68,338,382,-48
653,1,2022-09-30T20:28:17.787440,2462115,-1658,534,-488,-1447,-296,-82,338,382,-48
654,1,2022-09-30T20:28:17.793050,2462120,-1658,534,-488,-1447,-296,-82,338,382,-48
655,1,2022-09-30T20:28:17.803094,2462131,-1658,534,-488,-1447,-296,-82,338,382,-48
656,1,2022-09-30T20:28:17.808707,2462137,-1653,536,-489,-1466,-322,-87,338,382,-48
657,1,2022-09-30T20:28:17.815262,2462143,-1653,536,-489,-1466,-322,-87,338,382,-48
658,1,2022-09-30T20:28:17.822494,2462149,-1653,536,-489,-1466,-322,-87,338,382,-48
659,1,2022-09-30T20:28:17.828046,2462156,-1654,536,-492,-1477,-336,-94,338,382,-48
660,1,2022-09-30T20:28:17.834593,2462162,-1654,536,-492,-1477,-336,-94,338,382,-48
661,1,2022-09-30T20:28:17.844753,2462172,-1658,535,-484,-1485,-341,-113,346,388,-46
662,1,2022-09-30T20:28:17.852453,2462180,-1658,535,-484,-1485,-341,-113,346,388,-46
663,1,2022-09-30T20:28:17.861182,2462187,-1658,535,-484,-1485,-341,-113,346,388,-46
664,1,2022-09-30T20:28:17.867247,2462195,-1654,531,-489,-1491,-341,-118,346,388,-46
665,1,2022-09-30T20:28:17.875011,2462202,-1654,531,-489,-1491,-341,-118,346,388,-46
666,1,2022-09-30T20:28:17.882497,2462211,-1654,531,-489,-1491,-341,-118,346,388,-46
667,1,2022-09-30T20:28:17.888824,2462217,-1663,539,-479,-1503,-335,-134,346,388,-46
668,1,2022-09-30T20:28:17.896389,2462224,-1663,539,-479,-1503,-335,-134,346,388,-46
669,1,2022-09-30T20:28:17.903823,2462231,-1663,537,-486,-1530,-391,-96,346,388,-46
670,1,2022-09-30T20:28:17.909396,2462237,-1663,537,-486,-1530,-391,-96,346,388,-46
671,1,2022-09-30T20:28:17.917125,2462244,-1663,537,-486,-1530,-391,-96,346,388,-46
672,1,2022-09-30T20:28:17.925469,2462254,-1646,531,-487,-1557,-406,-83,346,388,-46
673,1,2022-09-30T20:28:17.932207,2462260,-1646,531,-487,-1557,-406,-83,346,388,-46
674,1,2022-09-30T20:28:17.939646,2462267,-1646,531,-487,-1557,-406,-83,346,388,-46
675,1,2022-09-30T20:28:17.945464,2462273,-1642,522,-491,-1587,-307,-115,346,388,-46
676,1,2022-09-30T20:28:17.954045,2462281,-1642,522,-491,-1587,-307,-115,346,388,-46
677,1,2022-09-30T20:28:17.961911,2462289,-1642,522,-491,-1587,-307,-115,346,388,-46
678,1,2022-09-30T20:28:17.968172,2462296,-1660,522,-487,-1575,-173,-179,338,384,-48
679,1,2022-09-30T20:28:17.976885,2462305,-1660,522,-487,-1575,-173,-179,338,384,-48
680,1,2022-09-30T20:28:17.984799,2462312,-1663,518,-490,-1500,-251,-166,338,384,-48
681,1,2022-09-30T20:28:17.991580,2462319,-1663,518,-490,-1500,-251,-166,338,384,-48
682,1,2022-09-30T20:28:17.998143,2462325,-1663,518,-490,-1500,-251,-166,338,384,-48
683,1,2022-09-30T20:28:18.004358,2462332,-1660,525,-492,-1423,-358,-135,338,384,-48
684,1,2022-09-30T20:28:18.011881,2462340,-1660,525,-492,-1423,-358,-135,338,384,-48
685,1,2022-09-30T20:28:18.019987,2462347,-1660,525,-492,-1423,-358,-135,338,384,-48
686,1,2022-09-30T20:28:18.027686,2462355,-1659,534,-491,-1409,-428,-108,338,384,-48
687,1,2022-09-30T20:28:18.035188,2462363,-1659,534,-491,-1409,-428,-108,338,384,-48
688,1,2022-09-30T20:28:18.043610,2462371,-1659,534,-491,-1409,-428,-108,338,384,-48
689,1,2022-09-30T20:28:18.051583,2462380,-1650,541,-480,-1480,-474,-50,338,384,-48
690,1,2022-09-30T20:28:18.061896,2462390,-1650,541,-480,-1480,-474,-50,338,384,-48
691,1,2022-09-30T20:28:18.067334,2462395,-1646,539,-478,-1582,-426,-41,338,384,-48
692,1,2022-09-30T20:28:18.075230,2462402,-1646,539,-478,-1582,-426,-41,338,384,-48
693,1,2022-09-30T20:28:18.082185,2462409,-1646,539,-478,-1582,-426,-41,338,384,-48
694,1,2022-09-30T20:28:18.088466,2462416,-1647,528,-476,-1648,-370,-53,339,393,-53
695,1,2022-09-30T20:28:18.095864,2462424,-1647,528,-476,-1648,-370,-53,339,393,-53
696,1,2022-09-30T20:28:18.105650,2462433,-1652,520,-483,-1654,-331,-81,339,393,-53
697,1,2022-09-30T20:28:18.112320,2462440,-1652,520,-483,-1654,-331,-81,339,393,-53
698,1,2022-09-30T20:28:18.122261,2462449,-1652,520,-483,-1654,-331,-81,339,393,-53
699,1,2022-09-30T20:28:18.128609,2462456,-1653,519,-484,-1596,-332,-97,339,393,-53
700,1,2022-09-30T20:28:18.135677,2462464,-1653,519,-484,-1596,-332,-97,339,393,-53
701,1,2022-09-30T20:28:18.143052,2462471,-1653,519,-484,-1596,-332,-97,339,393,-53
702,1,2022-09-30T20:28:18.149354,2462477,-1665,524,-481,-1535,-359,-95,339,393,-53
703,1,2022-09-30T20:28:18.158300,2462486,-1665,524,-481,-1535,-359,-95,339,393,-53
704,1,2022-09-30T20:28:18.165826,2462493,-1640,520,-487,-1477,-424,-86,339,393,-53
705,1,2022-09-30T20:28:18.172124,2462499,-1640,520,-487,-1477,-424,-86,339,393,-53
706,1,2022-09-30T20:28:18.180490,2462508,-1640,520,-487,-1477,-424,-86,339,393,-53
707,1,2022-09-30T20:28:18.187570,2462516,-1647,524,-481,-1461,-365,-88,339,393,-53
708,1,2022-09-30T20:28:18.195151,2462523,-1647,524,-481,-1461,-365,-88,339,393,-53
709,1,2022-09-30T20:28:18.202947,2462531,-1647,524,-481,-1461,-365,-88,339,393,-53
710,1,2022-09-30T20:28:18.208863,2462536,-1658,532,-483,-1472,-295,-86,338,388,-48
711,1,2022-09-30T20:28:18.214034,2462542,-1658,532,-483,-1472,-295,-86,338,388,-48
712,1,2022-09-30T20:28:18.224652,2462550,-1658,532,-483,-1472,-295,-86,338,388,-48
713,1,2022-09-30T20:28:18.231851,2462560,-1658,527,-476,-1467,-320,-66,338,388,-48
714,1,2022-09-30T20:28:18.240342,2462567,-1658,527,-476,-1467,-320,-66,338,388,-48
715,1,2022-09-30T20:28:18.253417,2462580,-1652,526,-483,-1473,-347,-60,338,388,-48
716,1,2022-09-30T20:28:18.265982,2462594,-1648,527,-484,-1482,-352,-41,338,388,-48
717,1,2022-09-30T20:28:18.273811,2462601,-1648,527,-484,-1482,-352,-41,338,388,-48
718,1,2022-09-30T20:28:18.283038,2462611,-1648,527,-484,-1482,-352,-41,338,388,-48
719,1,2022-09-30T20:28:18.288938,2462616,-1652,527,-484,-1488,-321,-53,338,388,-48
720,1,2022-09-30T20:28:18.296565,2462623,-1652,527,-484,-1488,-321,-53,338,388,-48
721,1,2022-09-30T20:28:18.306212,2462633,-1652,524,-485,-1494,-244,-49,338,388,-48
722,1,2022-09-30T20:28:18.311452,2462640,-1652,524,-485,-1494,-244,-49,338,388,-48
723,1,2022-09-30T20:28:18.317798,2462646,-1652,524,-485,-1494,-244,-49,338,388,-48
724,1,2022-09-30T20:28:18.328139,2462656,-1655,527,-488,-1475,-216,-40,338,388,-48
725,1,2022-09-30T20:28:18.335279,2462663,-1655,527,-488,-1475,-216,-40,338,388,-48
726,1,2022-09-30T20:28:18.344354,2462672,-1658,528,-483,-1449,-229,-28,344,382,-46
727,1,2022-09-30T20:28:18.353265,2462681,-1658,528,-483,-1449,-229,-28,344,382,-46
728,1,2022-09-30T20:28:18.362110,2462690,-1658,528,-483,-1449,-229,-28,344,382,-46
729,1,2022-09-30T20:28:18.368334,2462696,-1657,529,-489,-1401,-264,-35,344,382,-46
730,1,2022-09-30T20:28:18.376428,2462704,-1657,529,-489,-1401,-264,-35,344,382,-46
731,1,2022-09-30T20:28:18.383802,2462711,-1657,529,-489,-1401,-264,-35,344,382,-46
732,1,2022-09-30T20:28:18.388702,2462716,-1657,527,-489,-1373,-300,-43,344,382,-46
733,1,2022-09-30T20:28:18.395550,2462723,-1657,527,-489,-1373,-300,-43,344,382,-46
734,1,2022-09-30T20:28:18.404958,2462733,-1654,540,-490,-1373,-335,-57,344,382,-46
735,1,2022-09-30T20:28:18.411483,2462739,-1654,540,-490,-1373,-335,-57,344,382,-46
736,1,2022-09-30T20:28:18.416957,2462745,-1654,540,-490,-1373,-335,-57,344,382,-46
737,1,2022-09-30T20:28:18.426921,2462754,-1656,540,-488,-1407,-357,-50,344,382,-46
738,1,2022-09-30T20:28:18.432012,2462759,-1656,540,-488,-1407,-357,-50,344,382,-46
739,1,2022-09-30T20:28:18.438986,2462767,-1656,540,-488,-1407,-357,-50,344,382,-46
740,1,2022-09-30T20:28:18.447319,2462773,-1652,538,-484,-1475,-371,-32,344,382,-46
741,1,2022-09-30T20:28:18.457650,2462785,-1652,538,-484,-1475,-371,-32,344,382,-46
742,1,2022-09-30T20:28:18.467669,2462795,-1655,535,-480,-1535,-368,-37,335,383,-53
743,1,2022-09-30T20:28:18.481330,2462809,-1655,535,-480,-1535,-368,-37,335,383,-53
744,1,2022-09-30T20:28:18.487031,2462815,-1653,527,-483,-1564,-355,-55,335,383,-53
745,1,2022-09-30T20:28:18.493742,2462822,-1653,527,-483,-1564,-355,-55,335,383,-53
746,1,2022-09-30T20:28:18.503601,2462831,-1653,527,-483,-1564,-355,-55,335,383,-53
747,1,2022-09-30T20:28:18.508808,2462837,-1655,529,-485,-1551,-360,-58,335,383,-53
748,1,2022-09-30T20:28:18.515511,2462843,-1655,529,-485,-1551,-360,-58,335,383,-53
749,1,2022-09-30T20:28:18.529399,2462857,-1656,526,-488,-1532,-369,-68,335,383,-53
750,1,2022-09-30T20:28:18.539711,2462868,-1656,526,-488,-1532,-369,-68,335,383,-53
751,1,2022-09-30T20:28:18.549566,2462876,-1651,532,-489,-1523,-381,-80,335,383,-53
752,1,2022-09-30T20:28:18.557660,2462885,-1651,532,-489,-1523,-381,-80,335,383,-53
753,1,2022-09-30T20:28:18.566570,2462895,-1651,531,-485,-1522,-384,-81,335,383,-53
754,1,2022-09-30T20:28:18.577688,2462905,-1651,531,-485,-1522,-384,-81,335,383,-53
755,1,2022-09-30T20:28:18.585503,2462913,-1649,529,-482,-1514,-374,-90,331,379,-45
756,1,2022-09-30T20:28:18.595983,2462922,-1649,529,-482,-1514,-374,-90,331,379,-45
757,1,2022-09-30T20:28:18.606964,2462935,-1648,529,-477,-1496,-359,-105,331,379,-45
758,1,2022-09-30T20:28:18.613974,2462942,-1648,529,-477,-1496,-359,-105,331,379,-45
759,1,2022-09-30T20:28:18.622713,2462950,-1648,529,-477,-1496,-359,-105,331,379,-45
760,1,2022-09-30T20:28:18.628489,2462956,-1655,526,-482,-1471,-335,-116,331,379,-45
761,1,2022-09-30T20:28:18.633819,2462962,-1655,526,-482,-1471,-335,-116,331,379,-45
762,1,2022-09-30T20:28:18.640962,2462968,-1655,526,-482,-1471,-335,-116,331,379,-45
763,1,2022-09-30T20:28:18.647933,2462974,-1651,527,-480,-1447,-310,-112,331,379,-45
764,1,2022-09-30T20:28:18.655277,2462983,-1651,527,-480,-1447,-310,-112,331,379,-45
765,1,2022-09-30T20:28:18.663755,2462990,-1651,527,-480,-1447,-310,-112,331,379,-45
766,1,2022-09-30T20:28:18.669913,2462997,-1652,524,-479,-1430,-307,-99,331,379,-45
767,1,2022-09-30T20:28:18.681387,2463009,-1652,524,-479,-1430,-307,-99,331,379,-45
768,1,2022-09-30T20:28:18.688023,2463015,-1655,526,-484,-1413,-307,-94,331,379,-45
769,1,2022-09-30T20:28:18.694629,2463023,-1655,526,-484,-1413,-307,-94,331,379,-45
770,1,2022-09-30T20:28:18.703570,2463032,-1655,526,-484,-1413,-307,-94,331,379,-45
771,1,2022-09-30T20:28:18.709012,2463037,-1650,528,-482,-1422,-318,-82,342,374,-52
772,1,2022-09-30T20:28:18.714290,2463042,-1650,528,-482,-1422,-318,-82,342,374,-52
773,1,2022-09-30T20:28:18.722826,2463050,-1650,528,-482,-1422,-318,-82,342,374,-52
774,1,2022-09-30T20:28:18.728691,2463056,-1653,527,-484,-1439,-332,-62,342,374,-52
775,1,2022-09-30T20:28:18.734714,2463063,-1653,527,-484,-1439,-332,-62,342,374,-52
776,1,2022-09-30T20:28:18.742118,2463070,-1653,527,-484,-1439,-332,-62,342,374,-52
777,1,2022-09-30T20:28:18.747537,2463075,-1654,527,-485,-1453,-303,-53,342,374,-52
778,1,2022-09-30T20:28:18.753007,2463081,-1654,527,-485,-1453,-303,-53,342,374,-52
779,1,2022-09-30T20:28:18.760579,2463089,-1654,527,-485,-1453,-303,-53,342,374,-52
780,1,2022-09-30T20:28:18.765661,2463094,-1663,533,-483,-1468,-310,-76,342,374,-52
781,1,2022-09-30T20:28:18.772933,2463100,-1663,533,-483,-1468,-310,-76,342,374,-52
782,1,2022-09-30T20:28:18.779847,2463108,-1663,533,-483,-1468,-310,-76,342,374,-52
783,1,2022-09-30T20:28:18.785103,2463113,-1658,537,-485,-1486,-401,-49,342,374,-52
784,1,2022-09-30T20:28:18.791483,2463120,-1658,537,-485,-1486,-401,-49,342,374,-52
785,1,2022-09-30T20:28:18.799171,2463125,-1658,537,-485,-1486,-401,-49,342,374,-52
786,1,2022-09-30T20:28:18.805966,2463134,-1647,526,-485,-1508,-393,-29,342,374,-52
787,1,2022-09-30T20:28:18.813094,2463140,-1647,526,-485,-1508,-393,-29,342,374,-52
788,1,2022-09-30T20:28:18.821843,2463148,-1647,526,-485,-1508,-393,-29,342,374,-52
789,1,2022-09-30T20:28:18.827479,2463156,-1644,517,-488,-1516,-326,-69,342,374,-52
790,1,2022-09-30T20:28:18.834486,2463162,-1644,517,-488,-1516,-326,-69,342,374,-52
791,1,2022-09-30T20:28:18.840189,2463168,-1644,517,-488,-1516,-326,-69,342,374,-52
792,1,2022-09-30T20:28:18.846180,2463173,-1664,525,-482,-1538,-248,-146,337,381,-53
793,1,2022-09-30T20:28:18.854769,2463182,-1664,525,-482,-1538,-248,-146,337,381,-53
794,1,2022-09-30T20:28:18.861598,2463190,-1664,525,-482,-1538,-248,-146,337,381,-53
795,1,2022-09-30T20:28:18.866937,2463195,-1659,520,-484,-1529,-330,-152,337,381,-53
796,1,2022-09-30T20:28:18.873737,2463201,-1659,520,-484,-1529,-330,-152,337,381,-53
797,1,2022-09-30T20:28:18.880476,2463208,-1659,520,-484,-1529,-330,-152,337,381,-53
798,1,2022-09-30T20:28:18.885459,2463214,-1656,515,-489,-1506,-426,-124,337,381,-53
799,1,2022-09-30T20:28:18.891538,2463219,-1656,515,-489,-1506,-426,-124,337,381,-53
800,1,2022-09-30T20:28:18.898116,2463225,-1656,515,-489,-1506,-426,-124,337,381,-53
801,1,2022-09-30T20:28:18.903287,2463232,-1656,515,-489,-1506,-426,-124,337,381,-53
802,1,2022-09-30T20:28:18.908435,2463237,-1656,523,-484,-1498,-467,-104,337,381,-53
803,1,2022-09-30T20:28:18.914866,2463243,-1656,523,-484,-1498,-467,-104,337,381,-53
804,1,2022-09-30T20:28:18.922767,2463250,-1656,523,-484,-1498,-467,-104,337,381,-53
805,1,2022-09-30T20:28:18.928799,2463256,-1652,526,-476,-1526,-495,-33,337,381,-53
806,1,2022-09-30T20:28:18.934024,2463262,-1652,526,-476,-1526,-495,-33,337,381,-53
807,1,2022-09-30T20:28:18.941128,2463268,-1652,526,-476,-1526,-495,-33,337,381,-53
808,1,2022-09-30T20:28:18.946583,2463275,-1651,525,-475,-1572,-472,27,337,381,-53
809,1,2022-09-30T20:28:18.954172,2463283,-1651,525,-475,-1572,-472,27,337,381,-53
810,1,2022-09-30T20:28:18.960861,2463289,-1651,525,-475,-1572,-472,27,337,381,-53
811,1,2022-09-30T20:28:18.965917,2463294,-1653,518,-470,-1588,-436,79,340,384,-44
812,1,2022-09-30T20:28:18.972667,2463300,-1653,518,-470,-1588,-436,79,340,384,-44
813,1,2022-09-30T20:28:18.978230,2463306,-1653,518,-470,-1588,-436,79,340,384,-44
814,1,2022-09-30T20:28:18.984700,2463312,-1652,519,-474,-1580,-401,92,340,384,-44
815,1,2022-09-30T20:28:18.991086,2463320,-1652,519,-474,-1580,-401,92,340,384,-44
816,1,2022-09-30T20:28:18.997054,2463325,-1652,519,-474,-1580,-401,92,340,384,-44
817,1,2022-09-30T20:28:19.004908,2463333,-1649,524,-474,-1556,-358,98,340,384,-44
818,1,2022-09-30T20:28:19.010302,2463338,-1649,524,-474,-1556,-358,98,340,384,-44
819,1,2022-09-30T20:28:19.015906,2463344,-1649,524,-474,-1556,-358,98,340,384,-44
820,1,2022-09-30T20:28:19.023364,2463351,-1649,524,-474,-1556,-358,98,340,384,-44
821,1,2022-09-30T20:28:19.028733,2463356,-1661,526,-470,-1524,-339,105,340,384,-44
822,1,2022-09-30T20:28:19.035178,2463364,-1661,526,-470,-1524,-339,105,340,384,-44
823,1,2022-09-30T20:28:19.042629,2463371,-1661,526,-470,-1524,-339,105,340,384,-44
824,1,2022-09-30T20:28:19.050230,2463378,-1644,516,-476,-1478,-350,114,340,384,-44
825,1,2022-09-30T20:28:19.056370,2463384,-1644,516,-476,-1478,-350,114,340,384,-44
826,1,2022-09-30T20:28:19.062705,2463390,-1644,516,-476,-1478,-350,114,340,384,-44
827,1,2022-09-30T20:28:19.068314,2463396,-1660,519,-474,-1448,-263,104,340,384,-44
828,1,2022-09-30T20:28:19.076049,2463404,-1660,519,-474,-1448,-263,104,340,384,-44
829,1,2022-09-30T20:28:19.082977,2463411,-1660,519,-474,-1448,-263,104,340,384,-44
830,1,2022-09-30T20:28:19.088455,2463417,-1661,530,-470,-1414,-264,160,339,377,-49
831,1,2022-09-30T20:28:19.095260,2463423,-1661,530,-470,-1414,-264,160,339,377,-49
832,1,2022-09-30T20:28:19.104303,2463432,-1658,529,-471,-1394,-312,247,339,377,-49
833,1,2022-09-30T20:28:19.110593,2463438,-1658,529,-471,-1394,-312,247,339,377,-49
834,1,2022-09-30T20:28:19.116789,2463444,-1658,529,-471,-1394,-312,247,339,377,-49
835,1,2022-09-30T20:28:19.124092,2463452,-1658,529,-471,-1394,-312,247,339,377,-49
836,1,2022-09-30T20:28:19.129846,2463458,-1636,537,-488,-1363,-304,373,339,377,-49
837,1,2022-09-30T20:28:19.136443,2463464,-1636,537,-488,-1363,-304,373,339,377,-49
838,1,2022-09-30T20:28:19.143126,2463471,-1636,537,-488,-1363,-304,373,339,377,-49
839,1,2022-09-30T20:28:19.149304,2463476,-1650,523,-481,-1332,-4,804,339,377,-49
840,1,2022-09-30T20:28:19.155881,2463483,-1650,523,-481,-1332,-4,804,339,377,-49
841,1,2022-09-30T20:28:19.163077,2463491,-1650,523,-481,-1332,-4,804,339,377,-49
842,1,2022-09-30T20:28:19.168346,2463497,-1686,505,-474,-1304,133,1536,339,377,-49
843,1,2022-09-30T20:28:19.175860,2463504,-1686,505,-474,-1304,133,1536,339,377,-49
844,1,2022-09-30T20:28:19.182536,2463510,-1686,505,-474,-1304,133,1536,339,377,-49
845,1,2022-09-30T20:28:19.187563,2463515,-1674,498,-478,-1270,-31,2266,339,377,-49
846,1,2022-09-30T20:28:19.194484,2463522,-1674,498,-478,-1270,-31,2266,339,377,-49
847,1,2022-09-30T20:28:19.199925,2463527,-1674,498,-478,-1270,-31,2266,339,377,-49
848,1,2022-09-30T20:28:19.205545,2463534,-1672,496,-483,-1112,-116,2711,328,382,-48
849,1,2022-09-30T20:28:19.211981,2463540,-1672,496,-483,-1112,-116,2711,328,382,-48
850,1,2022-09-30T20:28:19.217571,2463545,-1672,496,-483,-1112,-116,2711,328,382,-48
851,1,2022-09-30T20:28:19.224646,2463552,-1659,523,-487,-894,-188,2827,328,382,-48
852,1,2022-09-30T20:28:19.232778,2463560,-1659,523,-487,-894,-188,2827,328,382,-48
853,1,2022-09-30T20:28:19.238638,2463566,-1659,523,-487,-894,-188,2827,328,382,-48
854,1,2022-09-30T20:28:19.246886,2463574,-1654,568,-485,-747,-181,2662,328,382,-48
855,1,2022-09-30T20:28:19.255488,2463584,-1654,568,-485,-747,-181,2662,328,382,-48
856,1,2022-09-30T20:28:19.262507,2463590,-1654,568,-485,-747,-181,2662,328,382,-48
857,1,2022-09-30T20:28:19.268273,2463596,-1648,609,-495,-710,-206,2372,328,382,-48
858,1,2022-09-30T20:28:19.278020,2463605,-1648,609,-495,-710,-206,2372,328,382,-48
859,1,2022-09-30T20:28:19.284662,2463612,-1659,640,-493,-816,-124,2215,328,382,-48
860,1,2022-09-30T20:28:19.290809,2463619,-1659,640,-493,-816,-124,2215,328,382,-48
861,1,2022-09-30T20:28:19.297653,2463625,-1659,640,-493,-816,-124,2215,328,382,-48
862,1,2022-09-30T20:28:19.305034,2463633,-1664,660,-493,-976,-187,2309,328,382,-48
863,1,2022-09-30T20:28:19.310388,2463638,-1664,660,-493,-976,-187,2309,328,382,-48
864,1,2022-09-30T20:28:19.315781,2463643,-1664,660,-493,-976,-187,2309,328,382,-48
865,1,2022-09-30T20:28:19.322927,2463650,-1664,660,-493,-976,-187,2309,328,382,-48
866,1,2022-09-30T20:28:19.328261,2463656,-1659,676,-485,-1175,-277,2494,328,382,-48
867,1,2022-09-30T20:28:19.334148,2463662,-1659,676,-485,-1175,-277,2494,328,382,-48
868,1,2022-09-30T20:28:19.341465,2463669,-1659,676,-485,-1175,-277,2494,328,382,-48
869,1,2022-09-30T20:28:19.347003,2463675,-1650,692,-489,-1333,-307,2558,321,389,-51
870,1,2022-09-30T20:28:19.354042,2463682,-1650,692,-489,-1333,-307,2558,321,389,-51
871,1,2022-09-30T20:28:19.360602,2463688,-1650,692,-489,-1333,-307,2558,321,389,-51
872,1,2022-09-30T20:28:19.365743,2463693,-1658,705,-493,-1460,-84,2733,321,389,-51
873,1,2022-09-30T20:28:19.372495,2463699,-1658,705,-493,-1460,-84,2733,321,389,-51
874,1,2022-09-30T20:28:19.377960,2463706,-1658,705,-493,-1460,-84,2733,321,389,-51
875,1,2022-09-30T20:28:19.384501,2463713,-1677,688,-494,-1460,-62,3211,321,389,-51
876,1,2022-09-30T20:28:19.389614,2463718,-1677,688,-494,-1460,-62,3211,321,389,-51
877,1,2022-09-30T20:28:19.394754,2463723,-1677,688,-494,-1460,-62,3211,321,389,-51
878,1,2022-09-30T20:28:19.400959,2463728,-1677,688,-494,-1460,-62,3211,321,389,-51
879,1,2022-09-30T20:28:19.406022,2463734,-1676,687,-491,-1353,-325,3650,321,389,-51
880,1,2022-09-30T20:28:19.412308,2463740,-1676,687,-491,-1353,-325,3650,321,389,-51
881,1,2022-09-30T20:28:19.417668,2463746,-1676,687,-491,-1353,-325,3650,321,389,-51
882,1,2022-09-30T20:28:19.424311,2463753,-1661,706,-489,-1261,-425,3685,321,389,-51
883,1,2022-09-30T20:28:19.430613,2463759,-1661,706,-489,-1261,-425,3685,321,389,-51
884,1,2022-09-30T20:28:19.436106,2463764,-1661,706,-489,-1261,-425,3685,321,389,-51
885,1,2022-09-30T20:28:19.443286,2463771,-1661,706,-489,-1261,-425,3685,321,389,-51
886,1,2022-09-30T20:28:19.449330,2463777,-1645,741,-490,-1219,-396,3366,321,389,-51
887,1,2022-09-30T20:28:19.455902,2463783,-1645,741,-490,-1219,-396,3366,321,389,-51
888,1,2022-09-30T20:28:19.462629,2463790,-1645,741,-490,-1219,-396,3366,321,389,-51
889,1,2022-09-30T20:28:19.468150,2463796,-1648,787,-489,-1241,-265,2931,313,395,-45
890,1,2022-09-30T20:28:19.475891,2463804,-1648,787,-489,-1241,-265,2931,313,395,-45
891,1,2022-09-30T20:28:19.482171,2463810,-1648,787,-489,-1241,-265,2931,313,395,-45
892,1,2022-09-30T20:28:19.487240,2463815,-1649,804,-494,-1242,-147,2629,313,395,-45
893,1,2022-09-30T20:28:19.493284,2463821,-1649,804,-494,-1242,-147,2629,313,395,-45
894,1,2022-09-30T20:28:19.501723,2463830,-1649,804,-494,-1242,-147,2629,313,395,-45
895,1,2022-09-30T20:28:19.507107,2463835,-1652,820,-498,-1196,-149,2340,313,395,-45
896,1,2022-09-30T20:28:19.513561,2463842,-1652,820,-498,-1196,-149,2340,313,395,-45
897,1,2022-09-30T20:28:19.520540,2463848,-1652,820,-498,-1196,-149,2340,313,395,-45
898,1,2022-09-30T20:28:19.525762,2463854,-1640,845,-506,-1167,-163,2015,313,395,-45
899,1,2022-09-30T20:28:19.532280,2463860,-1640,845,-506,-1167,-163,2015,313,395,-45
900,1,2022-09-30T20:28:19.538168,2463865,-1640,845,-506,-1167,-163,2015,313,395,-45
901,1,2022-09-30T20:28:19.544681,2463873,-1640,871,-499,-1167,21,1794,313,395,-45
902,1,2022-09-30T20:28:19.550902,2463879,-1640,871,-499,-1167,21,1794,313,395,-45
903,1,2022-09-30T20:28:19.556021,2463884,-1640,871,-499,-1167,21,1794,313,395,-45
904,1,2022-09-30T20:28:19.563306,2463891,-1640,871,-499,-1167,21,1794,313,395,-45
905,1,2022-09-30T20:28:19.568489,2463897,-1654,874,-509,-1182,103,1773,313,395,-45
906,1,2022-09-30T20:28:19.578173,2463906,-1654,874,-509,-1182,103,1773,313,395,-45
907,1,2022-09-30T20:28:19.584691,2463912,-1649,886,-508,-1222,5,1945,313,395,-45
908,1,2022-09-30T20:28:19.590138,2463918,-1649,886,-508,-1222,5,1945,302,402,-50
909,1,2022-09-30T20:28:19.595471,2463924,-1649,886,-508,-1222,5,1945,302,402,-50
910,1,2022-09-30T20:28:19.600560,2463929,-1649,886,-508,-1222,5,1945,302,402,-50
911,1,2022-09-30T20:28:19.606036,2463934,-1660,890,-508,-1249,-30,2125,302,402,-50
912,1,2022-09-30T20:28:19.611623,2463939,-1660,890,-508,-1249,-30,2125,302,402,-50
913,1,2022-09-30T20:28:19.617492,2463945,-1660,890,-508,-1249,-30,2125,302,402,-50
914,1,2022-09-30T20:28:19.624561,2463952,-1634,902,-524,-1251,-21,2295,302,402,-50
915,1,2022-09-30T20:28:19.630916,2463959,-1634,902,-524,-1251,-21,2295,302,402,-50
916,1,2022-09-30T20:28:19.636231,2463964,-1634,902,-524,-1251,-21,2295,302,402,-50
917,1,2022-09-30T20:28:19.642727,2463971,-1634,902,-524,-1251,-21,2295,302,402,-50
918,1,2022-09-30T20:28:19.648525,2463976,-1689,907,-507,-1267,278,2815,302,402,-50
919,1,2022-09-30T20:28:19.655294,2463983,-1689,907,-507,-1267,278,2815,302,402,-50
920,1,2022-09-30T20:28:19.661812,2463989,-1689,907,-507,-1267,278,2815,302,402,-50
921,1,2022-09-30T20:28:19.667354,2463995,-1708,894,-510,-1204,-57,3527,302,402,-50
922,1,2022-09-30T20:28:19.675099,2464003,-1708,894,-510,-1204,-57,3527,302,402,-50
923,1,2022-09-30T20:28:19.682507,2464010,-1708,894,-510,-1204,-57,3527,302,402,-50
924,1,2022-09-30T20:28:19.687761,2464016,-1671,898,-513,-1191,-561,4040,302,402,-50
925,1,2022-09-30T20:28:19.694028,2464022,-1671,898,-513,-1191,-561,4040,302,402,-50
926,1,2022-09-30T20:28:19.704075,2464032,-1671,898,-513,-1191,-561,4040,302,402,-50
927,1,2022-09-30T20:28:19.709620,2464037,-1631,921,-518,-1216,-609,3918,290,398,-52
928,1,2022-09-30T20:28:19.716363,2464045,-1631,921,-518,-1216,-609,3918,290,398,-52
929,1,2022-09-30T20:28:19.724052,2464051,-1631,921,-518,-1216,-609,3918,290,398,-52
930,1,2022-09-30T20:28:19.729558,2464058,-1626,967,-515,-1271,-401,3438,290,398,-52
931,1,2022-09-30T20:28:19.735384,2464064,-1626,967,-515,-1271,-401,3438,290,398,-52
932,1,2022-09-30T20:28:19.741746,2464070,-1626,967,-515,-1271,-401,3438,290,398,-52
933,1,2022-09-30T20:28:21.587089,2464075,-1629,1007,-507,-1367,-282,2901,290,398,-52
934,1,2022-09-30T20:28:21.595512,2465923,-1647,900,-493,-1598,-432,-2,295,407,-47
935,1,2022-09-30T20:28:21.605302,2465933,-1647,900,-493,-1598,-432,-2,295,407,-47
936,1,2022-09-30T20:28:21.613605,2465941,-1648,891,-496,-1661,-396,-40,295,407,-47
937,1,2022-09-30T20:28:21.624213,2465952,-1648,891,-496,-1661,-396,-40,295,407,-47
938,1,2022-09-30T20:28:21.630120,2465957,-1641,886,-490,-1668,-333,-97,295,407,-47
939,1,2022-09-30T20:28:21.637518,2465966,-1641,886,-490,-1668,-333,-97,295,407,-47
940,1,2022-09-30T20:28:21.646391,2465973,-1641,886,-490,-1668,-333,-97,295,407,-47
941,1,2022-09-30T20:28:21.652251,2465980,-1659,886,-490,-1642,-297,-115,295,407,-47
942,1,2022-09-30T20:28:21.659111,2465987,-1659,886,-490,-1642,-297,-115,295,407,-47
943,1,2022-09-30T20:28:21.667739,2465994,-1652,878,-495,-1568,-363,-93,295,407,-47
944,1,2022-09-30T20:28:21.674509,2466002,-1652,878,-495,-1568,-363,-93,295,407,-47
945,1,2022-09-30T20:28:21.681024,2466009,-1652,878,-495,-1568,-363,-93,295,407,-47
946,1,2022-09-30T20:28:21.687935,2466016,-1644,880,-499,-1511,-381,-90,295,407,-47
947,1,2022-09-30T20:28:21.695051,2466023,-1644,880,-499,-1511,-381,-90,295,407,-47
948,1,2022-09-30T20:28:21.703253,2466031,-1644,880,-499,-1511,-381,-90,295,407,-47
949,1,2022-09-30T20:28:21.710313,2466038,-1659,885,-492,-1497,-334,-124,302,396,-44
950,1,2022-09-30T20:28:21.717130,2466044,-1659,885,-492,-1497,-334,-124,302,396,-44
951,1,2022-09-30T20:28:21.724089,2466052,-1659,885,-492,-1497,-334,-124,302,396,-44
952,1,2022-09-30T20:28:21.730018,2466058,-1653,885,-489,-1485,-360,-140,302,396,-44
953,1,2022-09-30T20:28:21.737079,2466065,-1653,885,-489,-1485,-360,-140,302,396,-44
954,1,2022-09-30T20:28:21.744168,2466072,-1653,885,-489,-1485,-360,-140,302,396,-44
955,1,2022-09-30T20:28:21.750079,2466078,-1653,885,-489,-1485,-360,-140,302,396,-44
956,1,2022-09-30T20:28:21.755973,2466083,-1653,885,-489,-1485,-360,-140,302,396,-44
957,1,2022-09-30T20:28:21.763181,2466091,-1653,885,-489,-1485,-360,-140,302,396,-44
958,1,2022-09-30T20:28:21.769934,2466098,-1650,885,-491,-1502,-357,-128,302,396,-44
959,1,2022-09-30T20:28:21.777451,2466105,-1650,885,-491,-1502,-357,-128,302,396,-44
960,1,2022-09-30T20:28:21.784370,2466112,-1650,885,-491,-1502,-357,-128,302,396,-44
961,1,2022-09-30T20:28:21.790616,2466118,-1647,886,-494,-1503,-308,-82,302,396,-44
962,1,2022-09-30T20:28:21.798045,2466126,-1647,886,-494,-1503,-308,-82,302,396,-44
963,1,2022-09-30T20:28:21.805084,2466132,-1647,886,-494,-1503,-308,-82,302,396,-44
964,1,2022-09-30T20:28:21.810877,2466139,-1649,883,-495,-1486,-280,-32,302,396,-44
965,1,2022-09-30T20:28:21.818774,2466147,-1649,883,-495,-1486,-280,-32,302,396,-44
966,1,2022-09-30T20:28:21.828334,2466154,-1648,881,-495,-1449,-237,-2,298,404,-40
967,1,2022-09-30T20:28:21.836956,2466164,-1648,881,-495,-1449,-237,-2,298,404,-40
968,1,2022-09-30T20:28:21.843012,2466170,-1648,881,-495,-1449,-237,-2,298,404,-40
969,1,2022-09-30T20:28:21.850180,2466178,-1654,885,-492,-1399,-207,8,298,404,-40
970,1,2022-09-30T20:28:21.857072,2466185,-1654,885,-492,-1399,-207,8,298,404,-40
971,1,2022-09-30T20:28:21.863857,2466192,-1654,885,-492,-1399,-207,8,298,404,-40
972,1,2022-09-30T20:28:21.869256,2466197,-1653,885,-500,-1342,-214,-15,298,404,-40
973,1,2022-09-30T20:28:21.876614,2466204,-1653,885,-500,-1342,-214,-15,298,404,-40
974,1,2022-09-30T20:28:21.883555,2466211,-1653,885,-500,-1342,-214,-15,298,404,-40
975,1,2022-09-30T20:28:21.888983,2466216,-1654,894,-505,-1308,-244,-41,298,404,-40
976,1,2022-09-30T20:28:21.895516,2466224,-1654,894,-505,-1308,-244,-41,298,404,-40
977,1,2022-09-30T20:28:21.901442,2466229,-1654,894,-505,-1308,-244,-41,298,404,-40
978,1,2022-09-30T20:28:21.907694,2466236,-1654,896,-505,-1327,-276,-64,298,404,-40
979,1,2022-09-30T20:28:21.914113,2466242,-1654,896,-505,-1327,-276,-64,298,404,-40
980,1,2022-09-30T20:28:21.919767,2466247,-1654,896,-505,-1327,-276,-64,298,404,-40
981,1,2022-09-30T20:28:21.927424,2466255,-1653,903,-502,-1378,-301,-82,298,404,-40
982,1,2022-09-30T20:28:21.934089,2466263,-1653,903,-502,-1378,-301,-82,298,404,-40
983,1,2022-09-30T20:28:21.939884,2466268,-1653,903,-502,-1378,-301,-82,298,404,-40
984,1,2022-09-30T20:28:21.946500,2466275,-1651,898,-503,-1445,-328,-83,298,404,-40
985,1,2022-09-30T20:28:21.953275,2466281,-1651,898,-503,-1445,-328,-83,298,404,-40
986,1,2022-09-30T20:28:21.959478,2466288,-1651,898,-503,-1445,-328,-83,298,404,-40
987,1,2022-09-30T20:28:21.965935,2466294,-1651,894,-495,-1501,-352,-85,297,405,-45
988,1,2022-09-30T20:28:21.972601,2466300,-1651,894,-495,-1501,-352,-85,297,405,-45
989,1,2022-09-30T20:28:21.978005,2466306,-1651,894,-495,-1501,-352,-85,297,405,-45
990,1,2022-09-30T20:28:21.986620,2466315,-1652,891,-500,-1542,-365,-110,297,405,-45
991,1,2022-09-30T20:28:21.993018,2466321,-1652,891,-500,-1542,-365,-110,297,405,-45
992,1,2022-09-30T20:28:21.999742,2466328,-1652,891,-500,-1542,-365,-110,297,405,-45
993,1,2022-09-30T20:28:22.006046,2466334,-1650,886,-499,-1558,-364,-142,297,405,-45
994,1,2022-09-30T20:28:22.012700,2466341,-1650,886,-499,-1558,-364,-142,297,405,-45
995,1,2022-09-30T20:28:22.018404,2466347,-1650,886,-499,-1558,-364,-142,297,405,-45
996,1,2022-09-30T20:28:22.025922,2466354,-1651,887,-495,-1541,-348,-164,297,405,-45
997,1,2022-09-30T20:28:22.032754,2466361,-1651,887,-495,-1541,-348,-164,297,405,-45
998,1,2022-09-30T20:28:22.038284,2466366,-1651,887,-495,-1541,-348,-164,297,405,-45
999,1,2022-09-30T20:28:22.045703,2466373,-1651,887,-495,-1541,-348,-164,297,405,-45
1000,1,2022-09-30T20:28:22.051209,2466379,-1650,884,-500,-1529,-354,-159,297,405,-45
1001,1,2022-09-30T20:28:22.057513,2466385,-1650,884,-500,-1529,-354,-159,297,405,-45
1002,1,2022-09-30T20:28:22.064578,2466393,-1650,884,-500,-1529,-354,-159,297,405,-45
1003,1,2022-09-30T20:28:22.069741,2466398,-1653,883,-497,-1511,-354,-141,297,405,-45
1004,1,2022-09-30T20:28:22.076808,2466405,-1653,883,-497,-1511,-354,-141,297,405,-45
1005,1,2022-09-30T20:28:22.084460,2466412,-1653,883,-497,-1511,-354,-141,297,405,-45
1006,1,2022-09-30T20:28:22.090003,2466418,-1654,881,-491,-1503,-351,-162,294,410,-52
1007,1,2022-09-30T20:28:22.096298,2466424,-1654,881,-491,-1503,-351,-162,294,410,-52
1008,1,2022-09-30T20:28:22.102899,2466430,-1654,881,-491,-1503,-351,-162,294,410,-52
1009,1,2022-09-30T20:28:22.108328,2466437,-1655,878,-493,-1490,-341,-198,294,410,-52
1010,1,2022-09-30T20:28:22.115309,2466444,-1655,878,-493,-1490,-341,-198,294,410,-52
1011,1,2022-09-30T20:28:22.120757,2466449,-1655,878,-493,-1490,-341,-198,294,410,-52
1012,1,2022-09-30T20:28:22.127121,2466455,-1655,878,-493,-1490,-341,-198,294,410,-52
1013,1,2022-09-30T20:28:22.132313,2466460,-1655,878,-493,-1490,-341,-198,294,410,-52
1014,1,2022-09-30T20:28:22.137725,2466466,-1655,878,-493,-1490,-341,-198,294,410,-52
1015,1,2022-09-30T20:28:22.144340,2466472,-1655,878,-493,-1490,-341,-198,294,410,-52
1016,1,2022-09-30T20:28:22.149691,2466478,-1652,879,-500,-1478,-330,-172,294,410,-52
1017,1,2022-09-30T20:28:22.156002,2466484,-1652,879,-500,-1478,-330,-172,294,410,-52
1018,1,2022-09-30T20:28:22.162291,2466491,-1652,879,-500,-1478,-330,-172,294,410,-52
1019,1,2022-09-30T20:28:22.169161,2466497,-1654,878,-498,-1476,-319,-138,294,410,-52
1020,1,2022-09-30T20:28:22.175857,2466504,-1654,878,-498,-1476,-319,-138,294,410,-52
1021,1,2022-09-30T20:28:22.181756,2466509,-1654,878,-498,-1476,-319,-138,294,410,-52
1022,1,2022-09-30T20:28:22.188454,2466516,-1651,873,-495,-1468,-293,-115,294,410,-52
1023,1,2022-09-30T20:28:22.195054,2466523,-1651,873,-495,-1468,-293,-115,294,410,-52
1024,1,2022-09-30T20:28:22.201079,2466529,-1651,873,-495,-1468,-293,-115,294,410,-52
1025,1,2022-09-30T20:28:22.207626,2466536,-1653,877,-496,-1465,-281,-101,287,399,-49
1026,1,2022-09-30T20:28:22.213915,2466542,-1653,877,-496,-1465,-281,-101,287,399,-49
1027,1,2022-09-30T20:28:22.219297,2466547,-1653,877,-496,-1465,-281,-101,287,399,-49
1028,1,2022-09-30T20:28:22.225947,2466554,-1653,874,-501,-1461,-284,-80,287,399,-49
1029,1,2022-09-30T20:28:22.232330,2466561,-1653,874,-501,-1461,-284,-80,287,399,-49
1030,1,2022-09-30T20:28:22.237449,2466566,-1653,874,-501,-1461,-284,-80,287,399,-49
1031,1,2022-09-30T20:28:22.244366,2466572,-1653,874,-501,-1461,-284,-80,287,399,-49
1032,1,2022-09-30T20:28:22.249709,2466578,-1656,873,-500,-1453,-299,-69,287,399,-49
1033,1,2022-09-30T20:28:22.256769,2466584,-1656,873,-500,-1453,-299,-69,287,399,-49
1034,1,2022-09-30T20:28:22.262388,2466590,-1656,873,-500,-1453,-299,-69,287,399,-49
1035,1,2022-09-30T20:28:22.269934,2466597,-1659,879,-501,-1442,-330,-55,287,399,-49
1036,1,2022-09-30T20:28:22.276511,2466605,-1659,879,-501,-1442,-330,-55,287,399,-49
1037,1,2022-09-30T20:28:22.284009,2466612,-1659,879,-501,-1442,-330,-55,287,399,-49
1038,1,2022-09-30T20:28:22.289309,2466618,-1652,882,-501,-1445,-362,-12,287,399,-49
1039,1,2022-09-30T20:28:22.295969,2466624,-1652,882,-501,-1445,-362,-12,287,399,-49
1040,1,2022-09-30T20:28:22.303248,2466631,-1652,882,-501,-1445,-362,-12,287,399,-49
1041,1,2022-09-30T20:28:22.308898,2466636,-1656,892,-499,-1502,-352,10,287,399,-49
1042,1,2022-09-30T20:28:22.315686,2466642,-1656,892,-499,-1502,-352,10,287,399,-49
1043,1,2022-09-30T20:28:22.323052,2466651,-1656,892,-499,-1502,-352,10,287,399,-49
1044,1,2022-09-30T20:28:22.330920,2466659,-1656,891,-494,-1567,-379,43,296,400,-40
1045,1,2022-09-30T20:28:22.338119,2466666,-1656,891,-494,-1567,-379,43,296,400,-40
1046,1,2022-09-30T20:28:22.345147,2466673,-1656,891,-494,-1567,-379,43,296,400,-40
1047,1,2022-09-30T20:28:22.350950,2466679,-1648,886,-490,-1607,-393,41,296,400,-40
1048,1,2022-09-30T20:28:22.357560,2466685,-1648,886,-490,-1607,-393,41,296,400,-40
1049,1,2022-09-30T20:28:22.365226,2466693,-1648,886,-490,-1607,-393,41,296,400,-40
1050,1,2022-09-30T20:28:22.371663,2466700,-1632,874,-502,-1604,-346,-15,296,400,-40
1051,1,2022-09-30T20:28:22.379798,2466707,-1632,874,-502,-1604,-346,-15,296,400,-40
1052,1,2022-09-30T20:28:22.386887,2466714,-1661,874,-497,-1551,-180,-119,296,400,-40
1053,1,2022-09-30T20:28:22.392318,2466720,-1661,874,-497,-1551,-180,-119,296,400,-40
1054,1,2022-09-30T20:28:22.397881,2466725,-1661,874,-497,-1551,-180,-119,296,400,-40
1055,1,2022-09-30T20:28:22.405331,2466733,-1661,874,-497,-1551,-180,-119,296,400,-40
1056,1,2022-09-30T20:28:22.410971,2466739,-1664,872,-501,-1449,-231,-134,296,400,-40
1057,1,2022-09-30T20:28:22.419512,2466747,-1664,872,-501,-1449,-231,-134,296,400,-40
1058,1,2022-09-30T20:28:22.429080,2466755,-1661,874,-501,-1367,-358,-105,296,400,-40
1059,1,2022-09-30T20:28:22.439089,2466767,-1661,874,-501,-1367,-358,-105,296,400,-40
1060,1,2022-09-30T20:28:22.449149,2466775,-1654,886,-499,-1345,-431,-71,296,400,-40
1061,1,2022-09-30T20:28:22.457348,2466785,-1654,886,-499,-1345,-431,-71,296,400,-40
1062,1,2022-09-30T20:28:22.466973,2466795,-1650,899,-485,-1444,-459,-30,299,395,-47
1063,1,2022-09-30T20:28:22.476515,2466804,-1650,899,-485,-1444,-459,-30,299,395,-47
1064,1,2022-09-30T20:28:22.488427,2466816,-1649,894,-491,-1568,-431,-18,299,395,-47
1065,1,2022-09-30T20:28:22.498992,2466827,-1649,894,-491,-1568,-431,-18,299,395,-47
1066,1,2022-09-30T20:28:22.506339,2466834,-1647,880,-491,-1649,-385,-45,299,395,-47
1067,1,2022-09-30T20:28:22.513620,2466841,-1647,880,-491,-1649,-385,-45,299,395,-47
1068,1,2022-09-30T20:28:22.519755,2466848,-1647,880,-491,-1649,-385,-45,299,395,-47
1069,1,2022-09-30T20:28:22.527213,2466855,-1652,872,-492,-1654,-326,-92,299,395,-47
1070,1,2022-09-30T20:28:22.534638,2466863,-1652,872,-492,-1654,-326,-92,299,395,-47
1071,1,2022-09-30T20:28:22.540830,2466869,-1652,872,-492,-1654,-326,-92,299,395,-47
1072,1,2022-09-30T20:28:22.548609,2466877,-1653,870,-493,-1590,-306,-101,299,395,-47
1073,1,2022-09-30T20:28:22.555543,2466883,-1653,870,-493,-1590,-306,-101,299,395,-47
1074,1,2022-09-30T20:28:22.561025,2466889,-1653,870,-493,-1590,-306,-101,299,395,-47
1075,1,2022-09-30T20:28:22.569611,2466897,-1655,877,-491,-1512,-310,-88,299,395,-47
1076,1,2022-09-30T20:28:22.580744,2466909,-1655,877,-491,-1512,-310,-88,299,395,-47
1077,1,2022-09-30T20:28:22.587374,2466916,-1647,878,-489,-1453,-354,-63,295,399,-43
1078,1,2022-09-30T20:28:22.592501,2466921,-1647,878,-489,-1453,-354,-63,295,399,-43
1079,1,2022-09-30T20:28:22.598067,2466926,-1647,878,-489,-1453,-354,-63,295,399,-43
1080,1,2022-09-30T20:28:22.604836,2466933,-1647,878,-489,-1453,-354,-63,295,399,-43
1081,1,2022-09-30T20:28:22.609878,2466938,-1638,878,-489,-1425,-349,-62,295,399,-43
1082,1,2022-09-30T20:28:22.616199,2466945,-1638,878,-489,-1425,-349,-62,295,399,-43
1083,1,2022-09-30T20:28:22.621985,2466950,-1638,878,-489,-1425,-349,-62,295,399,-43
1084,1,2022-09-30T20:28:22.628521,2466957,-1653,884,-488,-1412,-267,-97,295,399,-43
1085,1,2022-09-30T20:28:22.635725,2466963,-1653,884,-488,-1412,-267,-97,295,399,-43
1086,1,2022-09-30T20:28:22.641741,2466969,-1653,884,-488,-1412,-267,-97,295,399,-43
1087,1,2022-09-30T20:28:22.651597,2466979,-1659,882,-495,-1419,-269,-117,295,399,-43
1088,1,2022-09-30T20:28:22.661414,2466990,-1659,882,-495,-1419,-269,-117,295,399,-43
1089,1,2022-09-30T20:28:22.676000,2467004,-1655,881,-496,-1430,-308,-125,295,399,-43
1090,1,2022-09-30T20:28:22.685798,2467014,-1651,880,-494,-1431,-331,-108,295,399,-43
1091,1,2022-09-30T20:28:22.693175,2467021,-1651,880,-494,-1431,-331,-108,295,399,-43
1092,1,2022-09-30T20:28:22.698604,2467026,-1651,880,-494,-1431,-331,-108,295,399,-43
1093,1,2022-09-30T20:28:22.704881,2467034,-1651,880,-494,-1431,-331,-108,295,399,-43
1094,1,2022-09-30T20:28:22.709870,2467039,-1653,882,-493,-1456,-321,-59,295,399,-43
1095,1,2022-09-30T20:28:22.716178,2467045,-1653,882,-493,-1456,-321,-59,295,399,-43
1096,1,2022-09-30T20:28:22.721611,2467050,-1653,882,-493,-1456,-321,-59,295,399,-43
1097,1,2022-09-30T20:28:22.727566,2467056,-1644,881,-496,-1475,-292,-21,295,399,-43
1098,1,2022-09-30T20:28:22.733905,2467062,-1644,881,-496,-1475,-292,-21,295,399,-43
1099,1,2022-09-30T20:28:22.739675,2467067,-1644,881,-496,-1475,-292,-21,295,399,-43
1100,1,2022-09-30T20:28:22.745931,2467075,-1648,878,-498,-1485,-234,18,295,399,-43
1101,1,2022-09-30T20:28:22.752175,2467081,-1648,878,-498,-1485,-234,18,295,399,-43
1102,1,2022-09-30T20:28:22.757144,2467086,-1648,878,-498,-1485,-234,18,295,399,-43
1103,1,2022-09-30T20:28:22.763837,2467092,-1648,878,-498,-1485,-234,18,295,399,-43
1104,1,2022-09-30T20:28:22.770358,2467098,-1650,879,-499,-1471,-212,30,295,399,-43
1105,1,2022-09-30T20:28:22.777340,2467105,-1650,879,-499,-1471,-212,30,295,399,-43
1106,1,2022-09-30T20:28:22.785093,2467112,-1650,879,-499,-1471,-212,30,295,399,-43
1107,1,2022-09-30T20:28:22.790352,2467119,-1655,881,-502,-1423,-226,4,295,399,-43
1108,1,2022-09-30T20:28:22.796787,2467125,-1655,881,-502,-1423,-226,4,295,399,-43
1109,1,2022-09-30T20:28:22.803026,2467132,-1655,881,-502,-1423,-226,4,295,399,-43
1110,1,2022-09-30T20:28:22.809283,2467138,-1655,886,-500,-1372,-285,-34,295,399,-43
1111,1,2022-09-30T20:28:22.815288,2467144,-1655,886,-500,-1372,-285,-34,295,399,-43
1112,1,2022-09-30T20:28:22.820770,2467149,-1655,886,-500,-1372,-285,-34,295,399,-43
1113,1,2022-09-30T20:28:22.826971,2467155,-1653,895,-504,-1357,-340,-58,294,398,-46
1114,1,2022-09-30T20:28:22.833055,2467162,-1653,895,-504,-1357,-340,-58,294,398,-46
1115,1,2022-09-30T20:28:22.838674,2467167,-1653,895,-504,-1357,-340,-58,294,398,-46
1116,1,2022-09-30T20:28:22.847102,2467175,-1651,897,-502,-1389,-365,-69,294,398,-46
1117,1,2022-09-30T20:28:22.854146,2467182,-1651,897,-502,-1389,-365,-69,294,398,-46
1118,1,2022-09-30T20:28:22.860260,2467188,-1651,897,-502,-1389,-365,-69,294,398,-46
1119,1,2022-09-30T20:28:22.866472,2467195,-1650,891,-500,-1458,-391,-95,294,398,-46
1120,1,2022-09-30T20:28:22.874426,2467202,-1650,891,-500,-1458,-391,-95,294,398,-46
1121,1,2022-09-30T20:28:22.880682,2467209,-1650,891,-500,-1458,-391,-95,294,398,-46
1122,1,2022-09-30T20:28:22.890003,2467218,-1649,884,-503,-1506,-378,-134,294,398,-46
1123,1,2022-09-30T20:28:22.899293,2467227,-1649,884,-503,-1506,-378,-134,294,398,-46
1124,1,2022-09-30T20:28:22.908241,2467235,-1651,881,-498,-1532,-358,-174,294,398,-46
1125,1,2022-09-30T20:28:22.915344,2467244,-1651,881,-498,-1532,-358,-174,294,398,-46
1126,1,2022-09-30T20:28:22.921457,2467249,-1651,881,-498,-1532,-358,-174,294,398,-46
1127,1,2022-09-30T20:28:22.928923,2467257,-1655,879,-498,-1534,-357,-177,294,398,-46
1128,1,2022-09-30T20:28:22.935626,2467263,-1655,879,-498,-1534,-357,-177,294,398,-46
1129,1,2022-09-30T20:28:22.941583,2467269,-1655,879,-498,-1534,-357,-177,294,398,-46
1130,1,2022-09-30T20:28:22.951884,2467279,-1654,874,-504,-1523,-347,-177,294,398,-46
1131,1,2022-09-30T20:28:22.962145,2467289,-1654,874,-504,-1523,-347,-177,294,398,-46
1132,1,2022-09-30T20:28:22.972260,2467301,-1653,876,-497,-1510,-323,-175,295,403,-39
1133,1,2022-09-30T20:28:22.982219,2467309,-1653,876,-497,-1510,-323,-175,295,403,-39
1134,1,2022-09-30T20:28:22.993327,2467321,-1655,879,-501,-1496,-319,-162,295,403,-39
1135,1,2022-09-30T20:28:23.001815,2467330,-1655,879,-501,-1496,-319,-162,295,403,-39
1136,1,2022-09-30T20:28:23.012613,2467339,-1650,880,-496,-1493,-348,-150,295,403,-39
1137,1,2022-09-30T20:28:23.029813,2467357,-1654,876,-496,-1508,-371,-126,295,403,-39
1138,1,2022-09-30T20:28:23.041781,2467369,-1654,876,-496,-1508,-371,-126,295,403,-39
1139,1,2022-09-30T20:28:23.051056,2467378,-1657,879,-499,-1527,-358,-120,295,403,-39
1140,1,2022-09-30T20:28:23.060150,2467388,-1657,879,-499,-1527,-358,-120,295,403,-39
1141,1,2022-09-30T20:28:23.067904,2467395,-1651,875,-491,-1543,-364,-97,295,403,-39
1142,1,2022-09-30T20:28:23.077776,2467406,-1651,875,-491,-1543,-364,-97,295,403,-39
1143,1,2022-09-30T20:28:23.087098,2467416,-1655,875,-494,-1544,-363,-74,297,401,-41
1144,1,2022-09-30T20:28:23.095734,2467424,-1655,875,-494,-1544,-363,-74,297,401,-41
1145,1,2022-09-30T20:28:23.106374,2467435,-1648,873,-497,-1536,-364,-64,297,401,-41
1146,1,2022-09-30T20:28:23.115300,2467443,-1648,873,-497,-1536,-364,-64,297,401,-41
1147,1,2022-09-30T20:28:23.121780,2467449,-1648,873,-497,-1536,-364,-64,297,401,-41
1148,1,2022-09-30T20:28:23.132901,2467461,-1653,873,-497,-1525,-366,-59,297,401,-41
1149,1,2022-09-30T20:28:23.142158,2467470,-1653,873,-497,-1525,-366,-59,297,401,-41
1150,1,2022-09-30T20:28:23.158675,2467486,-1651,875,-496,-1505,-354,-80,297,401,-41
1151,1,2022-09-30T20:28:23.167398,2467495,-1651,872,-498,-1499,-355,-100,297,401,-41
1152,1,2022-09-30T20:28:23.178109,2467505,-1651,872,-498,-1499,-355,-100,297,401,-41
1153,1,2022-09-30T20:28:23.187251,2467515,-1657,875,-494,-1489,-358,-132,297,401,-41
1154,1,2022-09-30T20:28:23.199691,2467525,-1657,875,-494,-1489,-358,-132,297,401,-41
1155,1,2022-09-30T20:28:23.208399,2467536,-1643,874,-492,-1484,-372,-134,288,396,-50
1156,1,2022-09-30T20:28:23.218261,2467546,-1643,874,-492,-1484,-372,-134,288,396,-50
1157,1,2022-09-30T20:28:23.229164,2467556,-1657,882,-488,-1492,-334,-124,288,396,-50
1158,1,2022-09-30T20:28:23.236544,2467565,-1657,882,-488,-1492,-334,-124,288,396,-50
1159,1,2022-09-30T20:28:23.242096,2467570,-1657,882,-488,-1492,-334,-124,288,396,-50
1160,1,2022-09-30T20:28:23.251815,2467577,-1655,883,-491,-1514,-355,-100,288,396,-50
1161,1,2022-09-30T20:28:23.270953,2467598,-1650,879,-493,-1514,-376,-79,288,396,-50
1162,1,2022-09-30T20:28:23.286681,2467614,-1639,865,-500,-1495,-325,-101,288,396,-50
1163,1,2022-09-30T20:28:23.297645,2467624,-1639,865,-500,-1495,-325,-101,288,396,-50
1164,1,2022-09-30T20:28:23.308140,2467636,-1660,868,-501,-1461,-167,-195,288,396,-50
1165,1,2022-09-30T20:28:23.317636,2467646,-1660,868,-501,-1461,-167,-195,288,396,-50
1166,1,2022-09-30T20:28:23.323821,2467652,-1660,868,-501,-1461,-167,-195,288,396,-50
1167,1,2022-09-30T20:28:23.331528,2467659,-1668,865,-497,-1428,-168,-289,293,405,-47
1168,1,2022-09-30T20:28:23.338459,2467666,-1668,865,-497,-1428,-168,-289,293,405,-47
1169,1,2022-09-30T20:28:23.355894,2467674,-1668,865,-497,-1428,-168,-289,293,405,-47
1170,1,2022-09-30T20:28:23.361965,2467690,-1658,863,-498,-1390,-288,-317,293,405,-47
1171,1,2022-09-30T20:28:23.371804,2467699,-1651,873,-501,-1378,-384,-299,293,405,-47
1172,1,2022-09-30T20:28:23.378787,2467706,-1651,873,-501,-1378,-384,-299,293,405,-47
1173,1,2022-09-30T20:28:23.384891,2467713,-1651,873,-501,-1378,-384,-299,293,405,-47
1174,1,2022-09-30T20:28:23.395554,2467720,-1651,879,-495,-1421,-407,-223,293,405,-47
1175,1,2022-09-30T20:28:23.401900,2467729,-1651,879,-495,-1421,-407,-223,293,405,-47
1176,1,2022-09-30T20:28:23.411302,2467737,-1650,878,-490,-1498,-404,-140,293,405,-47
1177,1,2022-09-30T20:28:23.418769,2467746,-1650,878,-490,-1498,-404,-140,293,405,-47
1178,1,2022-09-30T20:28:23.429416,2467758,-1653,873,-492,-1573,-395,-101,293,405,-47
1179,1,2022-09-30T20:28:23.437342,2467765,-1653,873,-492,-1573,-395,-101,293,405,-47
1180,1,2022-09-30T20:28:23.443617,2467771,-1653,873,-492,-1573,-395,-101,293,405,-47
1181,1,2022-09-30T20:28:23.449866,2467777,-1654,869,-488,-1608,-376,-120,293,405,-47
1182,1,2022-09-30T20:28:23.458247,2467786,-1654,869,-488,-1608,-376,-120,293,405,-47
1183,1,2022-09-30T20:28:23.466381,2467793,-1654,869,-488,-1608,-376,-120,293,405,-47
1184,1,2022-09-30T20:28:23.472427,2467801,-1653,856,-489,-1612,-348,-194,299,403,-47
1185,1,2022-09-30T20:28:23.481205,2467809,-1653,856,-489,-1612,-348,-194,299,403,-47
1186,1,2022-09-30T20:28:23.489289,2467817,-1657,859,-488,-1582,-328,-248,299,403,-47
1187,1,2022-09-30T20:28:23.497461,2467825,-1657,859,-488,-1582,-328,-248,299,403,-47
1188,1,2022-09-30T20:28:23.511358,2467832,-1657,859,-488,-1582,-328,-248,299,403,-47
1189,1,2022-09-30T20:28:23.519047,2467847,-1654,862,-489,-1543,-361,-217,299,403,-47
1190,1,2022-09-30T20:28:23.532872,2467860,-1641,857,-487,-1492,-390,-149,299,403,-47
1191,1,2022-09-30T20:28:23.540919,2467868,-1641,857,-487,-1492,-390,-149,299,403,-47
1192,1,2022-09-30T20:28:23.557747,2467878,-1661,859,-491,-1472,-283,-139,299,403,-47
1193,1,2022-09-30T20:28:23.564224,2467892,-1661,859,-491,-1472,-283,-139,299,403,-47
1194,1,2022-09-30T20:28:23.573480,2467900,-1664,859,-484,-1453,-286,-100,299,403,-47
1195,1,2022-09-30T20:28:23.583826,2467911,-1664,859,-484,-1453,-286,-100,299,403,-47
1196,1,2022-09-30T20:28:23.594936,2467922,-1654,860,-480,-1421,-324,-93,294,402,-44
1197,1,2022-09-30T20:28:23.604337,2467932,-1654,860,-480,-1421,-324,-93,294,402,-44
1198,1,2022-09-30T20:28:23.612966,2467940,-1645,861,-494,-1408,-319,-76,294,402,-44
1199,1,2022-09-30T20:28:23.620746,2467948,-1645,861,-494,-1408,-319,-76,294,402,-44
1200,1,2022-09-30T20:28:23.629892,2467957,-1644,861,-491,-1399,-258,-53,294,402,-44
1201,1,2022-09-30T20:28:23.635677,2467963,-1644,861,-491,-1399,-258,-53,294,402,-44
1202,1,2022-09-30T20:28:23.642628,2467970,-1644,861,-491,-1399,-258,-53,294,402,-44
1203,1,2022-09-30T20:28:23.650671,2467978,-1648,868,-495,-1386,-198,-14,294,402,-44
1204,1,2022-09-30T20:28:23.657397,2467985,-1648,868,-495,-1386,-198,-14,294,402,-44
1205,1,2022-09-30T20:28:23.663746,2467991,-1648,868,-495,-1386,-198,-14,294,402,-44
1206,1,2022-09-30T20:28:23.672088,2467999,-1652,863,-502,-1362,-158,6,294,402,-44
1207,1,2022-09-30T20:28:23.680779,2468008,-1652,863,-502,-1362,-158,6,294,402,-44
1208,1,2022-09-30T20:28:23.688821,2468017,-1660,865,-506,-1341,-147,-8,294,402,-44
1209,1,2022-09-30T20:28:23.699611,2468026,-1660,865,-506,-1341,-147,-8,294,402,-44
1210,1,2022-09-30T20:28:23.709739,2468035,-1660,867,-507,-1320,-198,-55,301,401,-41
1211,1,2022-09-30T20:28:23.718377,2468046,-1660,867,-507,-1320,-198,-55,301,401,-41
1212,1,2022-09-30T20:28:23.729190,2468057,-1660,869,-505,-1338,-247,-113,301,401,-41
1213,1,2022-09-30T20:28:23.737599,2468066,-1660,869,-505,-1338,-247,-113,301,401,-41
1214,1,2022-09-30T20:28:23.744320,2468072,-1660,869,-505,-1338,-247,-113,301,401,-41
1215,1,2022-09-30T20:28:23.756332,2468083,-1650,874,-504,-1352,-315,-146,301,401,-41
1216,1,2022-09-30T20:28:23.765550,2468093,-1650,874,-504,-1352,-315,-146,301,401,-41
1217,1,2022-09-30T20:28:23.773941,2468102,-1653,871,-499,-1391,-323,-155,301,401,-41
1218,1,2022-09-30T20:28:23.785359,2468113,-1653,871,-499,-1391,-323,-155,301,401,-41
1219,1,2022-09-30T20:28:23.792928,2468121,-1662,876,-499,-1454,-342,-150,301,401,-41
1220,1,2022-09-30T20:28:23.803159,2468130,-1662,876,-499,-1454,-342,-150,301,401,-41
1221,1,2022-09-30T20:28:23.812481,2468141,-1680,892,-507,-1505,-394,-112,301,401,-41
1222,1,2022-09-30T20:28:23.820953,2468148,-1680,892,-507,-1505,-394,-112,301,401,-41
1223,1,2022-09-30T20:28:23.832650,2468160,-1640,892,-495,-1607,-308,-77,303,409,-43
1224,1,2022-09-30T20:28:23.842013,2468169,-1640,892,-495,-1607,-308,-77,303,409,-43
1225,1,2022-09-30T20:28:23.856553,2468185,-1616,864,-496,-1672,-414,176,303,409,-43
1226,1,2022-09-30T20:28:23.865957,2468194,-1616,864,-496,-1672,-414,176,303,409,-43
1227,1,2022-09-30T20:28:23.876546,2468202,-1663,877,-492,-1680,-356,207,303,409,-43
1228,1,2022-09-30T20:28:23.885406,2468213,-1663,877,-492,-1680,-356,207,303,409,-43
1229,1,2022-09-30T20:28:23.893358,2468220,-1651,862,-505,-1663,-366,31,303,409,-43
1230,1,2022-09-30T20:28:23.902844,2468231,-1651,862,-505,-1663,-366,31,303,409,-43
1231,1,2022-09-30T20:28:23.912643,2468240,-1662,868,-492,-1555,-211,-266,303,409,-43
1232,1,2022-09-30T20:28:23.921237,2468248,-1662,868,-492,-1555,-211,-266,303,409,-43
1233,1,2022-09-30T20:28:23.935635,2468263,-1658,859,-495,-1372,-334,-399,303,409,-43
1234,1,2022-09-30T20:28:23.945368,2468273,-1658,859,-495,-1372,-334,-399,303,409,-43
1235,1,2022-09-30T20:28:23.956451,2468284,-1632,856,-496,-1258,-392,-555,303,409,-43
1236,1,2022-09-30T20:28:23.967974,2468295,-1624,834,-505,-1241,-326,-689,299,405,-43
1237,1,2022-09-30T20:28:23.981173,2468308,-1624,834,-505,-1241,-326,-689,299,405,-43
1238,1,2022-09-30T20:28:23.986659,2468315,-1660,833,-507,-1264,-155,-836,299,405,-43
1239,1,2022-09-30T20:28:23.995116,2468322,-1660,833,-507,-1264,-155,-836,299,405,-43
1240,1,2022-09-30T20:28:24.001165,2468329,-1660,833,-507,-1264,-155,-836,299,405,-43
1241,1,2022-09-30T20:28:24.011786,2468339,-1651,822,-517,-1224,-233,-782,299,405,-43
1242,1,2022-09-30T20:28:24.019518,2468347,-1651,822,-517,-1224,-233,-782,299,405,-43
1243,1,2022-09-30T20:28:24.035276,2468363,-1670,809,-528,-1172,-171,-730,299,405,-43
1244,1,2022-09-30T20:28:24.045192,2468372,-1670,809,-528,-1172,-171,-730,299,405,-43
1245,1,2022-09-30T20:28:24.057221,2468383,-1656,794,-531,-1046,-169,-641,299,405,-43
1246,1,2022-09-30T20:28:24.066079,2468393,-1656,794,-531,-1046,-169,-641,299,405,-43
1247,1,2022-09-30T20:28:24.076492,2468403,-1663,788,-537,-936,-118,-560,299,405,-43
1248,1,2022-09-30T20:28:24.087569,2468415,-1676,795,-539,-815,-105,-436,293,391,-51
1249,1,2022-09-30T20:28:24.097137,2468424,-1676,795,-539,-815,-105,-436,293,391,-51
1250,1,2022-09-30T20:28:24.109237,2468436,-1668,809,-542,-695,-155,-218,293,391,-51
1251,1,2022-09-30T20:28:24.120236,2468448,-1668,809,-542,-695,-155,-218,293,391,-51
1252,1,2022-09-30T20:28:24.133813,2468462,-1648,815,-544,-620,-240,34,293,391,-51
1253,1,2022-09-30T20:28:24.139766,2468467,-1648,815,-544,-620,-240,34,293,391,-51
1254,1,2022-09-30T20:28:24.149879,2468477,-1668,824,-541,-586,-233,201,293,391,-51
1255,1,2022-09-30T20:28:24.157866,2468486,-1668,824,-541,-586,-233,201,293,391,-51
1256,1,2022-09-30T20:28:24.164360,2468493,-1668,824,-541,-586,-233,201,293,391,-51
1257,1,2022-09-30T20:28:24.169647,2468498,-1682,836,-547,-541,-308,269,293,391,-51
1258,1,2022-09-30T20:28:24.178198,2468504,-1682,836,-547,-541,-308,269,293,391,-51
1259,1,2022-09-30T20:28:24.186909,2468515,-1674,844,-549,-477,-469,341,293,391,-51
1260,1,2022-09-30T20:28:24.193699,2468521,-1674,844,-549,-477,-469,341,293,391,-51
1261,1,2022-09-30T20:28:24.200108,2468528,-1674,844,-549,-477,-469,341,293,391,-51
1262,1,2022-09-30T20:28:24.209492,2468537,-1655,843,-535,-374,-571,354,305,401,-43
1263,1,2022-09-30T20:28:24.217001,2468545,-1655,843,-535,-374,-571,354,305,401,-43
1264,1,2022-09-30T20:28:24.225501,2468551,-1655,843,-535,-374,-571,354,305,401,-43
1265,1,2022-09-30T20:28:24.234778,2468562,-1650,841,-538,-239,-568,316,305,401,-43
1266,1,2022-09-30T20:28:24.240386,2468569,-1650,841,-538,-239,-568,316,305,401,-43
1267,1,2022-09-30T20:28:24.248613,2468576,-1667,848,-525,-111,-482,185,305,401,-43
1268,1,2022-09-30T20:28:24.259000,2468587,-1667,848,-525,-111,-482,185,305,401,-43
1269,1,2022-09-30T20:28:24.264690,2468593,-1667,848,-525,-111,-482,185,305,401,-43
1270,1,2022-09-30T20:28:24.272359,2468600,-1661,851,-526,50,-545,105,305,401,-43
1271,1,2022-09-30T20:28:24.283618,2468612,-1661,851,-526,50,-545,105,305,401,-43
1272,1,2022-09-30T20:28:24.290514,2468619,-1655,852,-524,240,-639,55,305,401,-43
1273,1,2022-09-30T20:28:24.299219,2468626,-1655,852,-524,240,-639,55,305,401,-43
1274,1,2022-09-30T20:28:24.305750,2468633,-1655,852,-524,240,-639,55,305,401,-43
1275,1,2022-09-30T20:28:24.313443,2468641,-1654,861,-520,406,-684,37,305,401,-43
1276,1,2022-09-30T20:28:24.320561,2468648,-1654,861,-520,406,-684,37,305,401,-43
1277,1,2022-09-30T20:28:24.334389,2468663,-1648,857,-512,558,-713,49,302,396,-40
1278,1,2022-09-30T20:28:24.341425,2468670,-1648,857,-512,558,-713,49,302,396,-40
1279,1,2022-09-30T20:28:24.350875,2468676,-1646,848,-513,705,-673,1,302,396,-40
1280,1,2022-09-30T20:28:24.359935,2468688,-1646,848,-513,705,-673,1,302,396,-40
1281,1,2022-09-30T20:28:24.368050,2468697,-1651,836,-508,902,-625,-115,302,396,-40
1282,1,2022-09-30T20:28:24.375630,2468704,-1651,836,-508,902,-625,-115,302,396,-40
1283,1,2022-09-30T20:28:24.382283,2468710,-1651,836,-508,902,-625,-115,302,396,-40
1284,1,2022-09-30T20:28:24.389764,2468718,-1651,831,-512,1168,-550,-252,302,396,-40
1285,1,2022-09-30T20:28:24.397431,2468725,-1651,831,-512,1168,-550,-252,302,396,-40
1286,1,2022-09-30T20:28:24.404468,2468732,-1651,831,-512,1168,-550,-252,302,396,-40
1287,1,2022-09-30T20:28:24.413372,2468742,-1642,831,-512,1469,-473,-331,302,396,-40
1288,1,2022-09-30T20:28:24.419201,2468748,-1642,831,-512,1469,-473,-331,302,396,-40
1289,1,2022-09-30T20:28:24.426137,2468753,-1642,831,-512,1469,-473,-331,302,396,-40
1290,1,2022-09-30T20:28:24.435956,2468764,-1656,826,-517,1778,-419,-365,302,396,-40
1291,1,2022-09-30T20:28:24.441697,2468769,-1656,826,-517,1778,-419,-365,302,396,-40
1292,1,2022-09-30T20:28:24.449957,2468777,-1645,819,-524,2068,-413,-355,302,396,-40
1293,1,2022-09-30T20:28:24.460831,2468789,-1645,819,-524,2068,-413,-355,302,396,-40
1294,1,2022-09-30T20:28:24.467871,2468796,-1651,819,-527,2344,-344,-367,303,383,-35
1295,1,2022-09-30T20:28:24.474229,2468801,-1651,819,-527,2344,-344,-367,303,383,-35
1296,1,2022-09-30T20:28:24.480466,2468809,-1651,819,-527,2344,-344,-367,303,383,-35
1297,1,2022-09-30T20:28:24.489848,2468817,-1661,813,-535,2623,-304,-401,303,383,-35
1298,1,2022-09-30T20:28:24.495436,2468824,-1661,813,-535,2623,-304,-401,303,383,-35
1299,1,2022-09-30T20:28:24.506333,2468835,-1659,795,-542,2912,-364,-438,303,383,-35
1300,1,2022-09-30T20:28:24.512193,2468841,-1659,795,-542,2912,-364,-438,303,383,-35
1301,1,2022-09-30T20:28:24.517414,2468846,-1659,795,-542,2912,-364,-438,303,383,-35
1302,1,2022-09-30T20:28:24.525007,2468852,-1659,795,-542,2912,-364,-438,303,383,-35
1303,1,2022-09-30T20:28:24.533729,2468861,-1662,803,-545,3197,-429,-507,303,383,-35
1304,1,2022-09-30T20:28:24.541220,2468870,-1662,803,-545,3197,-429,-507,303,383,-35
1305,1,2022-09-30T20:28:24.554225,2468877,-1665,809,-546,3427,-484,-554,303,383,-35
1306,1,2022-09-30T20:28:24.564725,2468892,-1665,809,-546,3427,-484,-554,303,383,-35
1307,1,2022-09-30T20:28:24.575588,2468902,-1657,808,-545,3587,-519,-538,303,383,-35
1308,1,2022-09-30T20:28:24.584996,2468913,-1657,808,-545,3587,-519,-538,303,383,-35
1309,1,2022-09-30T20:28:24.594341,2468921,-1651,812,-541,3703,-492,-480,293,399,-25
1310,1,2022-09-30T20:28:24.611588,2468938,-1656,805,-555,3797,-426,-382,293,399,-25
1311,1,2022-09-30T20:28:24.622870,2468950,-1656,805,-555,3797,-426,-382,293,399,-25
1312,1,2022-09-30T20:28:24.635963,2468964,-1664,798,-561,3908,-381,-283,293,399,-25
1313,1,2022-09-30T20:28:24.645291,2468973,-1664,798,-561,3908,-381,-283,293,399,-25
1314,1,2022-09-30T20:28:24.653157,2468981,-1673,798,-566,4070,-394,-170,293,399,-25
1315,1,2022-09-30T20:28:24.674943,2469000,-1672,806,-570,4259,-483,-66,293,399,-25
1316,1,2022-09-30T20:28:24.685019,2469013,-1672,806,-570,4259,-483,-66,293,399,-25
1317,1,2022-09-30T20:28:24.695663,2469024,-1667,812,-569,4426,-604,6,293,399,-25
1318,1,2022-09-30T20:28:24.705647,2469032,-1667,812,-569,4426,-604,6,293,399,-25
1319,1,2022-09-30T20:28:24.714938,2469043,-1663,829,-561,4531,-665,40,288,398,-14
1320,1,2022-09-30T20:28:24.720499,2469049,-1663,829,-561,4531,-665,40,288,398,-14
1321,1,2022-09-30T20:28:24.734909,2469056,-1656,836,-564,4591,-704,64,288,398,-14
1322,1,2022-09-30T20:28:24.743068,2469071,-1656,836,-564,4591,-704,64,288,398,-14
1323,1,2022-09-30T20:28:24.752529,2469080,-1656,836,-564,4591,-704,64,288,398,-14
1324,1,2022-09-30T20:28:24.758197,2469087,-1656,836,-564,4591,-704,64,288,398,-14
1325,1,2022-09-30T20:28:24.765943,2469094,-1656,836,-564,4591,-704,64,288,398,-14
1326,1,2022-09-30T20:28:24.774587,2469101,-1652,836,-559,4782,-746,40,288,398,-14
1327,1,2022-09-30T20:28:24.785660,2469111,-1652,836,-559,4782,-746,40,288,398,-14
1328,1,2022-09-30T20:28:24.794809,2469123,-1660,840,-559,4891,-761,8,288,398,-14
1329,1,2022-09-30T20:28:24.802079,2469130,-1660,840,-559,4891,-761,8,288,398,-14
1330,1,2022-09-30T20:28:24.812128,2469141,-1661,844,-563,4987,-791,-3,288,398,-14
1331,1,2022-09-30T20:28:24.817696,2469146,-1661,844,-563,4987,-791,-3,288,398,-14
1332,1,2022-09-30T20:28:24.825816,2469152,-1661,844,-563,4987,-791,-3,288,398,-14
1333,1,2022-09-30T20:28:24.834582,2469163,-1660,845,-547,5098,-840,-4,289,395,1
1334,1,2022-09-30T20:28:24.841715,2469170,-1660,845,-547,5098,-840,-4,289,395,1
1335,1,2022-09-30T20:28:24.848758,2469176,-1651,850,-551,5180,-858,-17,289,395,1
1336,1,2022-09-30T20:28:24.860248,2469188,-1651,850,-551,5180,-858,-17,289,395,1
1337,1,2022-09-30T20:28:24.867965,2469196,-1651,852,-547,5256,-877,-38,289,395,1
1338,1,2022-09-30T20:28:24.874438,2469201,-1651,852,-547,5256,-877,-38,289,395,1
1339,1,2022-09-30T20:28:24.882248,2469211,-1651,852,-547,5256,-877,-38,289,395,1
1340,1,2022-09-30T20:28:24.889251,2469218,-1653,852,-546,5331,-850,-85,289,395,1
1341,1,2022-09-30T20:28:24.894580,2469223,-1653,852,-546,5331,-850,-85,289,395,1
1342,1,2022-09-30T20:28:24.900247,2469228,-1653,852,-546,5331,-850,-85,289,395,1
1343,1,2022-09-30T20:28:24.907743,2469236,-1652,850,-548,5387,-814,-129,289,395,1
1344,1,2022-09-30T20:28:24.916070,2469244,-1652,850,-548,5387,-814,-129,289,395,1
1345,1,2022-09-30T20:28:24.921843,2469250,-1652,850,-548,5387,-814,-129,289,395,1
1346,1,2022-09-30T20:28:24.930244,2469259,-1659,854,-552,5462,-767,-136,289,395,1
1347,1,2022-09-30T20:28:24.939093,2469268,-1659,854,-552,5462,-767,-136,289,395,1
1348,1,2022-09-30T20:28:24.944777,2469273,-1659,854,-552,5462,-767,-136,289,395,1
1349,1,2022-09-30T20:28:24.952214,2469280,-1658,848,-547,5556,-760,-116,269,403,17
1350,1,2022-09-30T20:28:24.961972,2469291,-1658,848,-547,5556,-760,-116,269,403,17
1351,1,2022-09-30T20:28:24.968651,2469297,-1654,852,-545,5621,-751,-64,269,403,17
1352,1,2022-09-30T20:28:24.983363,2469306,-1654,852,-545,5621,-751,-64,269,403,17
1353,1,2022-09-30T20:28:24.993162,2469321,-1654,856,-557,5674,-736,-14,269,403,17
1354,1,2022-09-30T20:28:25.003573,2469330,-1654,856,-557,5674,-736,-14,269,403,17
1355,1,2022-09-30T20:28:25.015211,2469343,-1654,863,-559,5724,-719,34,269,403,17
1356,1,2022-09-30T20:28:25.020805,2469349,-1654,863,-559,5724,-719,34,269,403,17
1357,1,2022-09-30T20:28:25.031547,2469357,-1656,872,-560,5752,-738,61,269,403,17
1358,1,2022-09-30T20:28:25.039578,2469368,-1656,872,-560,5752,-738,61,269,403,17
1359,1,2022-09-30T20:28:25.044945,2469373,-1656,872,-560,5752,-738,61,269,403,17
1360,1,2022-09-30T20:28:25.057425,2469386,-1662,875,-555,5746,-762,73,269,403,17
1361,1,2022-09-30T20:28:25.064306,2469393,-1662,875,-555,5746,-762,73,269,403,17
1362,1,2022-09-30T20:28:25.072653,2469401,-1663,885,-559,5725,-821,83,269,403,17
1363,1,2022-09-30T20:28:25.079157,2469407,-1663,885,-559,5725,-821,83,269,403,17
1364,1,2022-09-30T20:28:25.084992,2469413,-1663,885,-559,5725,-821,83,269,403,17
1365,1,2022-09-30T20:28:25.091532,2469420,-1658,893,-555,5663,-889,103,252,398,26
1366,1,2022-09-30T20:28:25.098183,2469427,-1658,893,-555,5663,-889,103,252,398,26
1367,1,2022-09-30T20:28:25.108651,2469437,-1664,892,-545,5593,-927,148,252,398,26
1368,1,2022-09-30T20:28:25.117078,2469446,-1664,892,-545,5593,-927,148,252,398,26
1369,1,2022-09-30T20:28:25.123688,2469451,-1664,892,-545,5593,-927,148,252,398,26
1370,1,2022-09-30T20:28:25.132377,2469460,-1660,903,-544,5523,-947,173,252,398,26
1371,1,2022-09-30T20:28:25.139286,2469468,-1660,903,-544,5523,-947,173,252,398,26
1372,1,2022-09-30T20:28:25.145449,2469474,-1660,903,-544,5523,-947,173,252,398,26
1373,1,2022-09-30T20:28:25.153503,2469481,-1663,903,-538,5472,-999,221,252,398,26
1374,1,2022-09-30T20:28:25.164350,2469492,-1663,903,-538,5472,-999,221,252,398,26
1375,1,2022-09-30T20:28:25.171091,2469499,-1651,893,-543,5433,-1039,209,252,398,26
1376,1,2022-09-30T20:28:25.179854,2469508,-1651,893,-543,5433,-1039,209,252,398,26
1377,1,2022-09-30T20:28:25.189404,2469518,-1661,900,-524,5377,-957,132,252,398,26
1378,1,2022-09-30T20:28:25.199350,2469527,-1661,900,-524,5377,-957,132,252,398,26
1379,1,2022-09-30T20:28:25.205238,2469534,-1661,900,-524,5377,-957,132,252,398,26
1380,1,2022-09-30T20:28:25.212856,2469540,-1641,902,-519,5365,-999,134,248,392,36
1381,1,2022-09-30T20:28:25.219063,2469547,-1641,902,-519,5365,-999,134,248,392,36
1382,1,2022-09-30T20:28:25.225429,2469553,-1641,902,-519,5365,-999,134,248,392,36
1383,1,2022-09-30T20:28:25.235337,2469563,-1654,893,-516,5366,-1044,115,248,392,36
1384,1,2022-09-30T20:28:25.241056,2469569,-1654,893,-516,5366,-1044,115,248,392,36
1385,1,2022-09-30T20:28:25.248487,2469576,-1659,897,-516,5382,-1117,19,248,392,36
1386,1,2022-09-30T20:28:25.258980,2469587,-1659,897,-516,5382,-1117,19,248,392,36
1387,1,2022-09-30T20:28:25.264474,2469593,-1659,897,-516,5382,-1117,19,248,392,36
1388,1,2022-09-30T20:28:25.270962,2469600,-1649,910,-502,5355,-1180,-39,248,392,36
1389,1,2022-09-30T20:28:25.281418,2469610,-1649,910,-502,5355,-1180,-39,248,392,36
1390,1,2022-09-30T20:28:25.288602,2469617,-1646,919,-498,5250,-1157,-56,248,392,36
1391,1,2022-09-30T20:28:25.294574,2469623,-1646,919,-498,5250,-1157,-56,248,392,36
1392,1,2022-09-30T20:28:25.300324,2469628,-1646,919,-498,5250,-1157,-56,248,392,36
1393,1,2022-09-30T20:28:25.307435,2469635,-1646,915,-496,5106,-1121,-63,248,392,36
1394,1,2022-09-30T20:28:25.316775,2469645,-1646,915,-496,5106,-1121,-63,248,392,36
1395,1,2022-09-30T20:28:25.322821,2469651,-1646,915,-496,5106,-1121,-63,248,392,36
1396,1,2022-09-30T20:28:25.334050,2469662,-1638,899,-488,4994,-1040,-137,234,392,42
1397,1,2022-09-30T20:28:25.340619,2469669,-1638,899,-488,4994,-1040,-137,234,392,42
1398,1,2022-09-30T20:28:25.347494,2469676,-1643,886,-488,4937,-895,-258,234,392,42
1399,1,2022-09-30T20:28:25.360420,2469689,-1643,886,-488,4937,-895,-258,234,392,42
1400,1,2022-09-30T20:28:25.366983,2469695,-1639,874,-494,4965,-780,-331,234,392,42
1401,1,2022-09-30T20:28:25.378183,2469702,-1639,874,-494,4965,-780,-331,234,392,42
1402,1,2022-09-30T20:28:25.385341,2469713,-1639,874,-494,4965,-780,-331,234,392,42
1403,1,2022-09-30T20:28:25.395313,2469723,-1655,865,-499,5048,-701,-333,234,392,42
1404,1,2022-09-30T20:28:25.403430,2469732,-1655,865,-499,5048,-701,-333,234,392,42
1405,1,2022-09-30T20:28:25.413565,2469742,-1641,854,-517,5179,-670,-290,234,392,42
1406,1,2022-09-30T20:28:25.421762,2469749,-1641,854,-517,5179,-670,-290,234,392,42
1407,1,2022-09-30T20:28:25.430345,2469758,-1643,857,-525,5319,-563,-245,234,392,42
1408,1,2022-09-30T20:28:25.436020,2469765,-1643,857,-525,5319,-563,-245,234,392,42
1409,1,2022-09-30T20:28:25.443247,2469772,-1643,857,-525,5319,-563,-245,234,392,42
1410,1,2022-09-30T20:28:25.450236,2469777,-1659,864,-536,5417,-461,-219,219,399,53
1411,1,2022-09-30T20:28:25.460399,2469788,-1659,864,-536,5417,-461,-219,219,399,53
1412,1,2022-09-30T20:28:25.469700,2469797,-1663,876,-540,5436,-472,-178,219,399,53
1413,1,2022-09-30T20:28:25.483310,2469811,-1663,876,-540,5436,-472,-178,219,399,53
1414,1,2022-09-30T20:28:25.491662,2469819,-1667,893,-549,5369,-546,-112,219,399,53
1415,1,2022-09-30T20:28:25.501909,2469828,-1667,893,-549,5369,-546,-112,219,399,53
1416,1,2022-09-30T20:28:25.511029,2469839,-1665,906,-541,5182,-650,-28,219,399,53
1417,1,2022-09-30T20:28:25.522908,2469850,-1665,906,-541,5182,-650,-28,219,399,53
1418,1,2022-09-30T20:28:25.534963,2469863,-1666,910,-549,4949,-739,44,219,399,53
1419,1,2022-09-30T20:28:25.542877,2469870,-1666,910,-549,4949,-739,44,219,399,53
1420,1,2022-09-30T20:28:25.549657,2469876,-1658,906,-543,4722,-832,68,219,399,53
1421,1,2022-09-30T20:28:25.559540,2469889,-1658,906,-543,4722,-832,68,219,399,53
1422,1,2022-09-30T20:28:25.565233,2469894,-1658,906,-543,4722,-832,68,219,399,53
1423,1,2022-09-30T20:28:25.571603,2469900,-1660,902,-538,4555,-933,52,219,399,53
1424,1,2022-09-30T20:28:25.582492,2469910,-1660,902,-538,4555,-933,52,219,399,53
1425,1,2022-09-30T20:28:25.591980,2469920,-1664,899,-533,4453,-1007,16,206,400,52
1426,1,2022-09-30T20:28:25.597738,2469925,-1664,899,-533,4453,-1007,16,206,400,52
1427,1,2022-09-30T20:28:25.609277,2469938,-1659,898,-522,4427,-1131,7,206,400,52
1428,1,2022-09-30T20:28:25.617188,2469946,-1659,898,-522,4427,-1131,7,206,400,52
1429,1,2022-09-30T20:28:25.623391,2469951,-1659,898,-522,4427,-1131,7,206,400,52
1430,1,2022-09-30T20:28:25.635206,2469963,-1653,897,-517,4393,-1207,-17,206,400,52
1431,1,2022-09-30T20:28:25.640605,2469969,-1653,897,-517,4393,-1207,-17,206,400,52
1432,1,2022-09-30T20:28:25.647866,2469976,-1647,891,-510,4366,-1234,-72,206,400,52
1433,1,2022-09-30T20:28:25.657821,2469986,-1647,891,-510,4366,-1234,-72,206,400,52
1434,1,2022-09-30T20:28:25.663793,2469992,-1647,891,-510,4366,-1234,-72,206,400,52
1435,1,2022-09-30T20:28:25.672456,2470000,-1651,886,-499,4340,-1221,-151,206,400,52
1436,1,2022-09-30T20:28:25.680014,2470008,-1651,886,-499,4340,-1221,-151,206,400,52
1437,1,2022-09-30T20:28:25.685551,2470013,-1651,886,-499,4340,-1221,-151,206,400,52
1438,1,2022-09-30T20:28:25.692300,2470021,-1652,881,-492,4316,-1191,-240,206,400,52
1439,1,2022-09-30T20:28:25.701189,2470028,-1652,881,-492,4316,-1191,-240,206,400,52
1440,1,2022-09-30T20:28:25.709059,2470037,-1643,882,-486,4303,-1162,-272,186,388,58
1441,1,2022-09-30T20:28:25.720952,2470049,-1643,882,-486,4303,-1162,-272,186,388,58
